[{"view_history":"[{\"page_index\":0,\"viewing_time\":11887.144999986049}]","rt":11888.00999999512,"trial_type":"instructions","trial_index":0,"time_elapsed":11908,"internal_node_id":"0.0-0.0","participant_id":3707103,"xgorilla":{"user_agent":"Mozilla/5.0 (Windows NT 10.0; Win64; x64) AppleWebKit/537.36 (KHTML, like Gecko) Chrome/90.0.4430.93 Safari/537.36","screen_size":"1536x864","browser_size":"1536x722"}},{"instructions":"Choose colors from the palette bar, and paint on the body to show how comfortable/uncomfortable you would be if a stranger touched you there.","rt":60874,"strokes":"[{\"color\":\"#01fefe\",\"size\":15,\"width\":480,\"height\":480,\"stroke\":[[40,248.6999969482422],[41,248.6999969482422],[42,248.6999969482422],[43,250.6999969482422],[43,253.6999969482422],[43,258.6999969482422],[43,264.6999969482422],[43,270.6999969482422],[43,274.6999969482422],[43,275.6999969482422],[42,274.6999969482422],[42,262.6999969482422],[43,261.6999969482422],[44,258.6999969482422],[44,255.6999969482422],[45,253.6999969482422],[45,251.6999969482422],[45,250.6999969482422],[46,250.6999969482422],[47,250.6999969482422],[48,249.6999969482422],[48,249.6999969482422],[49,249.6999969482422],[51,250.6999969482422],[52,254.6999969482422],[52,255.6999969482422],[52,258.6999969482422],[52,258.6999969482422],[52,259.6999969482422],[52,260.6999969482422],[52,261.6999969482422],[52,262.6999969482422],[52,262.6999969482422],[52,263.6999969482422],[52,264.6999969482422],[52,265.6999969482422],[51,266.6999969482422],[51,267.6999969482422],[51,268.6999969482422],[51,269.6999969482422],[50,269.6999969482422],[48,267.6999969482422],[48,262.6999969482422],[48,258.6999969482422],[48,254.6999969482422],[49,251.6999969482422],[49,250.6999969482422],[49,250.6999969482422],[49,247.6999969482422],[50,245.6999969482422],[50,244.6999969482422],[50,242.6999969482422],[50,242.6999969482422],[50,241.6999969482422],[50,240.6999969482422],[50,239.6999969482422],[50,238.6999969482422],[51,237.6999969482422],[52,236.6999969482422],[52,235.6999969482422],[52,234.6999969482422],[52,234.6999969482422],[52,233.6999969482422],[52,232.6999969482422],[52,231.6999969482422],[54,230.6999969482422],[55,229.6999969482422],[56,227.6999969482422],[56,226.6999969482422],[56,226.6999969482422],[57,226.6999969482422],[58,225.6999969482422],[58,226.6999969482422],[58,227.6999969482422],[58,230.6999969482422],[58,234.6999969482422],[58,235.6999969482422],[58,238.6999969482422],[58,239.6999969482422],[58,241.6999969482422],[58,242.6999969482422],[58,243.6999969482422],[58,245.6999969482422],[58,247.6999969482422],[57,250.6999969482422],[56,251.6999969482422],[56,254.6999969482422]]},{\"color\":\"#01fefe\",\"size\":15,\"width\":480,\"height\":480,\"stroke\":[[180,218.6999969482422],[180,218.6999969482422],[180,220.6999969482422],[180,222.6999969482422],[180,226.6999969482422],[180,229.6999969482422],[180,230.6999969482422],[180,233.6999969482422],[180,234.6999969482422],[180,235.6999969482422],[180,236.6999969482422],[180,237.6999969482422],[180,239.6999969482422],[180,240.6999969482422],[180,242.6999969482422],[180,244.6999969482422],[180,246.6999969482422],[180,246.6999969482422],[181,248.6999969482422],[181,250.6999969482422],[181,251.6999969482422],[181,253.6999969482422],[183,255.6999969482422],[183,257.6999969482422],[184,259.6999969482422],[184,261.6999969482422],[184,262.6999969482422],[185,262.6999969482422],[187,263.6999969482422],[187,265.6999969482422],[188,266.6999969482422],[191,270.6999969482422],[192,271.6999969482422],[196,275.6999969482422],[199,278.6999969482422],[199,277.6999969482422],[199,273.6999969482422],[199,268.6999969482422],[199,263.6999969482422],[199,259.6999969482422],[199,255.6999969482422],[199,254.6999969482422],[199,251.6999969482422],[199,248.6999969482422],[199,243.6999969482422],[200,238.6999969482422],[200,233.6999969482422],[200,227.6999969482422],[200,226.6999969482422],[200,225.6999969482422],[200,224.6999969482422],[200,223.6999969482422],[200,222.6999969482422],[200,222.6999969482422],[200,221.6999969482422],[199,221.6999969482422],[197,221.6999969482422],[196,221.6999969482422],[196,221.6999969482422],[195,222.6999969482422],[194,222.6999969482422],[192,222.6999969482422],[192,223.6999969482422],[191,223.6999969482422],[190,223.6999969482422],[188,223.6999969482422],[187,223.6999969482422],[186,224.6999969482422],[186,226.6999969482422],[187,230.6999969482422],[187,232.6999969482422],[188,234.6999969482422],[188,236.6999969482422],[188,238.6999969482422],[188,239.6999969482422],[189,242.6999969482422],[189,242.6999969482422],[189,243.6999969482422],[189,244.6999969482422],[189,246.6999969482422],[190,246.6999969482422],[190,248.6999969482422],[190,249.6999969482422],[190,250.6999969482422],[191,251.6999969482422],[191,253.6999969482422],[191,254.6999969482422],[191,255.6999969482422],[191,256.6999969482422],[192,257.6999969482422]]},{\"color\":\"#01fefe\",\"size\":15,\"width\":480,\"height\":480,\"stroke\":[[180,102.69999694824219],[180,104.69999694824219],[180,107.69999694824219],[179,110.69999694824219],[179,114.69999694824219],[179,117.69999694824219],[179,118.69999694824219],[179,119.69999694824219],[179,120.69999694824219],[179,123.69999694824219],[179,124.69999694824219],[179,125.69999694824219],[179,127.69999694824219],[179,128.6999969482422],[179,130.6999969482422],[179,130.6999969482422],[179,132.6999969482422],[179,133.6999969482422],[179,134.6999969482422],[179,134.6999969482422],[179,135.6999969482422],[179,136.6999969482422],[179,137.6999969482422],[179,138.6999969482422],[179,138.6999969482422],[179,139.6999969482422],[179,140.6999969482422],[179,141.6999969482422],[179,142.6999969482422],[179,143.6999969482422],[179,144.6999969482422],[179,146.6999969482422],[179,146.6999969482422],[179,148.6999969482422],[179,150.6999969482422],[179,150.6999969482422],[180,151.6999969482422],[180,152.6999969482422],[180,153.6999969482422],[180,154.6999969482422],[180,154.6999969482422],[180,155.6999969482422],[180,157.6999969482422],[180,158.6999969482422],[180,158.6999969482422],[181,158.6999969482422],[181,159.6999969482422],[182,160.6999969482422],[182,161.6999969482422],[183,162.6999969482422],[183,162.6999969482422],[183,163.6999969482422],[183,164.6999969482422],[183,165.6999969482422],[183,166.6999969482422],[183,166.6999969482422],[183,167.6999969482422],[183,168.6999969482422],[184,170.6999969482422]]},{\"color\":\"#01fefe\",\"size\":15,\"width\":480,\"height\":480,\"stroke\":[[61,86.69999694824219],[60,86.69999694824219],[60,88.69999694824219],[60,89.69999694824219],[60,91.69999694824219],[60,93.69999694824219],[60,94.69999694824219],[60,94.69999694824219],[60,96.69999694824219],[60,98.69999694824219],[60,98.69999694824219],[60,99.69999694824219],[60,100.69999694824219],[60,101.69999694824219],[60,102.69999694824219],[60,102.69999694824219],[60,103.69999694824219],[60,104.69999694824219],[60,105.69999694824219],[60,106.69999694824219],[61,109.69999694824219],[61,110.69999694824219],[61,110.69999694824219],[61,111.69999694824219],[61,112.69999694824219],[61,113.69999694824219],[61,114.69999694824219],[61,115.69999694824219],[61,116.69999694824219],[61,118.69999694824219],[61,118.69999694824219],[61,119.69999694824219],[61,120.69999694824219],[61,121.69999694824219],[61,122.69999694824219],[61,125.69999694824219],[61,127.69999694824219],[61,130.6999969482422],[60,132.6999969482422],[60,136.6999969482422],[60,138.6999969482422],[60,142.6999969482422],[60,143.6999969482422],[60,144.6999969482422],[60,145.6999969482422],[60,146.6999969482422],[59,147.6999969482422],[59,148.6999969482422],[58,150.6999969482422],[58,152.6999969482422],[58,154.6999969482422],[58,154.6999969482422],[57,154.6999969482422],[57,157.6999969482422],[56,158.6999969482422],[55,161.6999969482422],[54,163.6999969482422],[54,164.6999969482422],[54,165.6999969482422],[52,167.6999969482422]]},{\"color\":\"#01fefe\",\"size\":15,\"width\":480,\"height\":480,\"stroke\":[[311,95.69999694824219],[311,97.69999694824219],[311,102.69999694824219],[312,104.69999694824219],[312,106.69999694824219],[312,108.69999694824219],[313,108.69999694824219],[312,108.69999694824219],[311,108.69999694824219],[310,108.69999694824219],[308,108.69999694824219],[305,108.69999694824219],[302,108.69999694824219],[301,108.69999694824219],[300,108.69999694824219],[301,108.69999694824219],[302,108.69999694824219],[304,107.69999694824219],[305,106.69999694824219],[306,106.69999694824219],[309,103.69999694824219],[310,102.69999694824219],[311,101.69999694824219],[312,101.69999694824219],[312,100.69999694824219],[313,99.69999694824219],[315,98.69999694824219],[316,97.69999694824219],[316,96.69999694824219],[316,95.69999694824219],[318,94.69999694824219],[319,94.69999694824219],[319,93.69999694824219],[319,92.69999694824219],[319,91.69999694824219],[320,90.69999694824219]]},{\"color\":\"#01fefe\",\"size\":15,\"width\":480,\"height\":480,\"stroke\":[[408,91.69999694824219],[407,91.69999694824219],[404,91.69999694824219],[402,91.69999694824219],[400,91.69999694824219],[397,91.69999694824219],[395,91.69999694824219],[394,91.69999694824219],[394,92.69999694824219],[394,94.69999694824219],[395,94.69999694824219],[396,95.69999694824219],[397,97.69999694824219],[399,98.69999694824219],[400,98.69999694824219],[400,98.69999694824219],[401,99.69999694824219],[401,100.69999694824219],[402,101.69999694824219],[403,101.69999694824219],[404,102.69999694824219],[404,102.69999694824219],[405,102.69999694824219],[406,102.69999694824219],[408,102.69999694824219],[408,102.69999694824219],[410,102.69999694824219],[410,101.69999694824219],[410,98.69999694824219],[411,97.69999694824219],[411,96.69999694824219]]},{\"color\":\"#01fefe\",\"size\":15,\"width\":480,\"height\":480,\"stroke\":[[418,130.6999969482422],[418,130.6999969482422],[419,131.6999969482422],[419,133.6999969482422],[420,134.6999969482422],[420,136.6999969482422],[420,138.6999969482422],[421,140.6999969482422],[421,142.6999969482422],[421,145.6999969482422],[421,148.6999969482422],[421,150.6999969482422],[421,151.6999969482422],[421,152.6999969482422],[422,154.6999969482422],[422,155.6999969482422],[422,157.6999969482422],[422,158.6999969482422],[423,160.6999969482422],[423,161.6999969482422],[423,162.6999969482422],[423,164.6999969482422],[423,165.6999969482422],[424,166.6999969482422],[424,166.6999969482422],[424,167.6999969482422],[424,170.6999969482422],[424,170.6999969482422],[424,172.6999969482422],[424,173.6999969482422],[425,174.6999969482422],[425,175.6999969482422],[425,177.6999969482422],[425,178.6999969482422],[427,181.6999969482422],[427,182.6999969482422],[427,184.6999969482422],[428,186.6999969482422],[428,189.6999969482422],[429,190.6999969482422],[429,191.6999969482422],[429,193.6999969482422],[429,194.6999969482422],[430,197.6999969482422],[431,200.6999969482422],[431,201.6999969482422],[432,203.6999969482422],[432,204.6999969482422],[433,205.6999969482422],[433,206.6999969482422],[433,207.6999969482422],[434,210.6999969482422],[434,211.6999969482422],[435,214.6999969482422],[435,216.6999969482422],[436,219.6999969482422],[436,221.6999969482422],[436,223.6999969482422],[436,224.6999969482422],[436,226.6999969482422],[436,227.6999969482422],[436,229.6999969482422],[437,230.6999969482422],[438,232.6999969482422],[438,236.6999969482422],[438,239.6999969482422],[438,242.6999969482422],[438,243.6999969482422],[439,245.6999969482422],[439,247.6999969482422],[440,249.6999969482422],[440,251.6999969482422],[440,254.6999969482422],[441,258.6999969482422],[441,258.6999969482422],[442,262.6999969482422],[442,265.6999969482422],[442,266.6999969482422],[443,267.6999969482422],[443,268.6999969482422],[444,269.6999969482422]]},{\"color\":\"#01fefe\",\"size\":15,\"width\":480,\"height\":480,\"stroke\":[[300,115.69999694824219],[300,116.69999694824219],[301,119.69999694824219],[301,122.69999694824219],[303,126.69999694824219],[304,130.6999969482422],[304,131.6999969482422],[304,134.6999969482422],[304,135.6999969482422],[304,137.6999969482422],[304,138.6999969482422],[304,139.6999969482422],[304,141.6999969482422],[304,142.6999969482422],[304,142.6999969482422],[304,145.6999969482422],[304,146.6999969482422],[304,146.6999969482422],[304,147.6999969482422],[304,150.6999969482422],[304,151.6999969482422],[304,153.6999969482422],[304,154.6999969482422],[304,155.6999969482422],[304,159.6999969482422],[303,162.6999969482422],[303,164.6999969482422],[303,166.6999969482422],[303,168.6999969482422],[303,171.6999969482422],[302,173.6999969482422],[302,174.6999969482422],[301,176.6999969482422],[301,178.6999969482422],[300,179.6999969482422],[300,182.6999969482422],[300,184.6999969482422],[300,186.6999969482422],[300,189.6999969482422],[299,190.6999969482422],[299,192.6999969482422],[299,195.6999969482422],[299,198.6999969482422],[298,200.6999969482422],[296,202.6999969482422],[296,207.6999969482422],[296,210.6999969482422],[295,211.6999969482422],[294,214.6999969482422],[293,214.6999969482422],[293,215.6999969482422],[293,216.6999969482422],[293,217.6999969482422],[293,218.6999969482422],[293,220.6999969482422],[293,221.6999969482422],[292,223.6999969482422],[292,225.6999969482422],[292,227.6999969482422],[291,230.6999969482422],[291,231.6999969482422],[290,233.6999969482422],[290,234.6999969482422],[289,237.6999969482422],[288,239.6999969482422],[288,242.6999969482422],[288,245.6999969482422],[287,247.6999969482422],[286,249.6999969482422],[285,250.6999969482422],[285,251.6999969482422],[285,252.6999969482422],[284,253.6999969482422],[284,254.6999969482422],[284,255.6999969482422],[284,256.6999969482422],[283,258.6999969482422],[283,260.6999969482422],[282,260.6999969482422],[282,261.6999969482422],[282,262.6999969482422],[282,262.6999969482422],[282,263.6999969482422],[282,264.6999969482422],[282,265.6999969482422],[282,266.6999969482422],[282,267.6999969482422],[282,268.6999969482422],[282,269.6999969482422],[283,269.6999969482422],[284,269.6999969482422],[286,265.6999969482422],[288,258.6999969482422],[288,258.6999969482422],[288,257.6999969482422],[288,255.6999969482422],[288,254.6999969482422],[288,253.6999969482422],[288,250.6999969482422],[288,250.6999969482422],[288,249.6999969482422],[288,248.6999969482422],[288,247.6999969482422],[288,246.6999969482422],[288,246.6999969482422],[288,245.6999969482422],[288,244.6999969482422],[288,243.6999969482422],[288,242.6999969482422],[288,242.6999969482422],[288,241.6999969482422],[289,241.6999969482422],[290,241.6999969482422],[291,241.6999969482422],[291,242.6999969482422],[292,243.6999969482422],[292,245.6999969482422],[292,246.6999969482422],[292,248.6999969482422],[292,249.6999969482422],[292,250.6999969482422],[292,251.6999969482422],[292,254.6999969482422],[291,255.6999969482422],[291,256.6999969482422],[291,257.6999969482422]]},{\"color\":\"#01fefe\",\"size\":15,\"width\":480,\"height\":480,\"stroke\":[[418,214.6999969482422],[418,213.6999969482422],[419,214.6999969482422],[420,216.6999969482422],[420,224.6999969482422],[420,230.6999969482422],[421,234.6999969482422],[422,236.6999969482422],[423,238.6999969482422],[423,240.6999969482422],[423,242.6999969482422],[423,244.6999969482422],[423,246.6999969482422],[423,246.6999969482422],[423,247.6999969482422],[424,248.6999969482422],[424,249.6999969482422],[424,251.6999969482422],[424,253.6999969482422],[424,254.6999969482422],[424,254.6999969482422],[424,256.6999969482422],[425,258.6999969482422],[425,259.6999969482422],[425,260.6999969482422],[425,261.6999969482422],[425,262.6999969482422],[426,263.6999969482422],[426,264.6999969482422],[428,266.6999969482422],[428,267.6999969482422],[430,269.6999969482422],[430,270.6999969482422],[431,271.6999969482422],[432,273.6999969482422],[432,271.6999969482422],[432,270.6999969482422],[432,266.6999969482422],[431,262.6999969482422],[430,258.6999969482422],[429,255.6999969482422],[428,254.6999969482422],[428,253.6999969482422],[428,250.6999969482422],[427,250.6999969482422],[427,247.6999969482422],[427,244.6999969482422],[426,241.6999969482422],[425,237.6999969482422],[424,234.6999969482422],[424,233.6999969482422],[424,230.6999969482422]]},{\"color\":\"#fd0202\",\"size\":15,\"width\":480,\"height\":480,\"stroke\":[[360,16.699996948242188],[360,18.699996948242188],[360,21.699996948242188],[360,24.699996948242188],[360,28.699996948242188],[360,36.69999694824219],[360,42.69999694824219],[360,46.69999694824219],[360,48.69999694824219],[360,49.69999694824219],[360,50.69999694824219],[360,50.69999694824219],[360,54.69999694824219],[360,58.69999694824219],[360,62.69999694824219],[360,66.69999694824219],[360,68.69999694824219],[360,72.69999694824219],[360,75.69999694824219],[360,81.69999694824219],[360,86.69999694824219],[360,92.69999694824219],[360,97.69999694824219],[360,101.69999694824219],[360,108.69999694824219],[360,114.69999694824219],[361,122.69999694824219],[362,129.6999969482422],[363,135.6999969482422],[363,142.6999969482422],[363,146.6999969482422],[364,152.6999969482422],[364,156.6999969482422],[364,160.6999969482422],[364,168.6999969482422],[364,173.6999969482422],[364,178.6999969482422],[364,179.6999969482422],[364,182.6999969482422],[364,182.6999969482422],[364,184.6999969482422],[364,188.6999969482422],[364,193.6999969482422],[364,197.6999969482422],[364,201.6999969482422],[364,205.6999969482422],[364,210.6999969482422],[364,217.6999969482422],[364,224.6999969482422],[364,234.6999969482422],[364,243.6999969482422],[365,250.6999969482422],[365,258.6999969482422],[365,267.6999969482422],[367,275.6999969482422],[367,282.6999969482422],[368,289.6999969482422],[368,297.6999969482422],[368,303.6999969482422],[369,310.6999969482422],[370,317.6999969482422],[371,323.6999969482422],[371,333.6999969482422],[372,341.6999969482422],[372,346.6999969482422],[372,351.6999969482422],[372,359.6999969482422],[372,367.6999969482422],[372,378.6999969482422],[372,382.6999969482422],[372,390.6999969482422],[372,393.6999969482422],[372,401.6999969482422],[372,407.6999969482422],[372,419.6999969482422],[372,438.6999969482422],[372,447.6999969482422],[372,454.6999969482422],[372,455.6999969482422],[372,456.6999969482422],[372,457.6999969482422],[372,458.6999969482422],[372,459.6999969482422],[372,460.6999969482422],[372,461.6999969482422],[372,462.6999969482422],[370,462.6999969482422],[367,464.6999969482422],[362,466.6999969482422],[352,471.6999969482422],[341,475.6999969482422],[336,476.6999969482422],[333,476.6999969482422],[332,476.6999969482422],[330,476.6999969482422],[328,474.6999969482422],[328,473.6999969482422],[327,472.6999969482422],[328,470.6999969482422],[333,468.6999969482422],[341,466.6999969482422],[354,462.6999969482422],[370,458.6999969482422],[383,454.6999969482422],[384,454.6999969482422],[385,454.6999969482422],[379,450.6999969482422],[373,449.6999969482422],[356,448.6999969482422],[334,446.6999969482422],[312,445.6999969482422],[304,445.6999969482422],[306,443.6999969482422],[321,441.6999969482422],[339,439.6999969482422],[359,437.6999969482422],[376,435.6999969482422],[384,433.6999969482422],[384,432.6999969482422],[384,430.6999969482422],[384,429.6999969482422],[384,427.6999969482422],[384,424.6999969482422],[386,421.6999969482422],[386,420.6999969482422],[378,417.6999969482422],[362,416.6999969482422],[352,415.6999969482422],[319,411.6999969482422],[309,408.6999969482422],[310,406.6999969482422],[314,403.6999969482422],[328,399.6999969482422],[350,394.6999969482422],[371,390.6999969482422],[388,387.6999969482422],[391,386.6999969482422],[391,386.6999969482422],[391,384.6999969482422],[391,382.6999969482422],[391,378.6999969482422],[388,373.6999969482422],[380,369.6999969482422],[371,363.6999969482422],[360,360.6999969482422],[353,358.6999969482422],[348,357.6999969482422],[348,354.6999969482422],[350,351.6999969482422],[351,350.6999969482422],[357,351.6999969482422]]},{\"color\":\"#fd0202\",\"size\":\"60\",\"width\":480,\"height\":480,\"stroke\":[[381,327.6999969482422],[380,326.6999969482422],[378,325.6999969482422],[373,318.6999969482422],[371,314.6999969482422],[365,302.6999969482422],[360,291.6999969482422],[357,285.6999969482422],[352,274.6999969482422],[348,262.6999969482422],[345,256.6999969482422],[345,251.6999969482422],[344,248.6999969482422],[344,243.6999969482422],[344,239.6999969482422],[343,235.6999969482422],[343,232.6999969482422],[343,229.6999969482422],[343,226.6999969482422],[343,222.6999969482422],[343,220.6999969482422],[343,217.6999969482422],[343,214.6999969482422],[343,214.6999969482422],[343,213.6999969482422],[343,212.6999969482422],[343,210.6999969482422],[343,210.6999969482422],[344,206.6999969482422],[344,202.6999969482422],[346,199.6999969482422],[348,194.6999969482422],[348,193.6999969482422],[348,192.6999969482422],[348,190.6999969482422],[348,189.6999969482422],[349,188.6999969482422],[350,184.6999969482422],[351,182.6999969482422],[351,180.6999969482422],[352,178.6999969482422],[352,176.6999969482422],[352,174.6999969482422],[353,173.6999969482422],[354,171.6999969482422],[354,170.6999969482422],[354,168.6999969482422],[354,166.6999969482422],[355,165.6999969482422],[356,162.6999969482422],[356,158.6999969482422],[356,158.6999969482422],[356,154.6999969482422],[357,153.6999969482422],[357,150.6999969482422],[358,149.6999969482422],[358,147.6999969482422],[358,146.6999969482422],[358,145.6999969482422],[359,144.6999969482422],[359,143.6999969482422],[359,142.6999969482422],[359,141.6999969482422],[360,138.6999969482422],[360,137.6999969482422],[360,135.6999969482422],[360,134.6999969482422],[360,134.6999969482422],[360,133.6999969482422],[360,132.6999969482422],[360,131.6999969482422],[360,130.6999969482422],[360,129.6999969482422],[360,128.6999969482422],[360,127.69999694824219],[360,126.69999694824219],[360,126.69999694824219],[360,125.69999694824219],[360,124.69999694824219],[360,122.69999694824219],[360,121.69999694824219],[360,119.69999694824219],[360,118.69999694824219],[360,117.69999694824219],[360,114.69999694824219],[360,114.69999694824219]]},{\"color\":\"#fd0202\",\"size\":\"60\",\"width\":480,\"height\":480,\"stroke\":[[351,47.69999694824219],[351,46.69999694824219],[351,43.69999694824219],[352,38.69999694824219],[352,37.69999694824219],[353,36.69999694824219],[353,35.69999694824219],[354,34.69999694824219],[354,33.69999694824219],[354,32.69999694824219],[355,32.69999694824219],[355,31.699996948242188],[356,34.69999694824219],[356,38.69999694824219],[356,47.69999694824219],[356,52.69999694824219],[354,56.69999694824219],[354,58.69999694824219],[353,60.69999694824219],[353,61.69999694824219],[353,62.69999694824219],[353,62.69999694824219],[353,63.69999694824219],[353,64.69999694824219],[353,65.69999694824219],[353,66.69999694824219],[353,66.69999694824219],[353,67.69999694824219],[353,69.69999694824219],[353,70.69999694824219],[353,72.69999694824219],[353,73.69999694824219],[353,74.69999694824219],[353,77.69999694824219],[353,78.69999694824219],[353,79.69999694824219],[353,81.69999694824219],[353,82.69999694824219],[353,82.69999694824219],[353,83.69999694824219],[353,84.69999694824219],[353,85.69999694824219],[353,86.69999694824219],[353,87.69999694824219],[353,88.69999694824219],[353,90.69999694824219],[353,91.69999694824219],[353,92.69999694824219],[353,94.69999694824219],[353,94.69999694824219],[353,97.69999694824219],[353,102.69999694824219],[352,104.69999694824219],[352,106.69999694824219],[352,107.69999694824219],[352,108.69999694824219],[352,109.69999694824219],[352,110.69999694824219],[352,111.69999694824219],[352,112.69999694824219],[352,113.69999694824219],[352,114.69999694824219],[352,114.69999694824219],[352,115.69999694824219],[352,117.69999694824219],[352,118.69999694824219],[352,119.69999694824219],[352,120.69999694824219],[352,122.69999694824219],[352,122.69999694824219],[352,125.69999694824219],[352,126.69999694824219],[352,129.6999969482422],[352,132.6999969482422],[352,134.6999969482422],[352,136.6999969482422],[352,138.6999969482422],[354,144.6999969482422],[356,147.6999969482422],[356,148.6999969482422],[356,148.6999969482422],[357,150.6999969482422],[357,151.6999969482422],[357,152.6999969482422],[358,154.6999969482422],[359,157.6999969482422],[360,162.6999969482422],[360,166.6999969482422],[362,169.6999969482422],[364,173.6999969482422],[364,175.6999969482422],[365,178.6999969482422],[366,180.6999969482422],[366,182.6999969482422],[367,184.6999969482422],[367,186.6999969482422],[368,187.6999969482422],[368,190.6999969482422],[370,194.6999969482422],[371,197.6999969482422],[372,198.6999969482422],[372,200.6999969482422],[373,202.6999969482422],[373,203.6999969482422],[374,205.6999969482422],[375,206.6999969482422],[376,208.6999969482422],[376,210.6999969482422],[376,212.6999969482422],[377,213.6999969482422],[377,215.6999969482422],[378,217.6999969482422],[378,218.6999969482422],[379,221.6999969482422],[379,222.6999969482422],[379,225.6999969482422],[380,226.6999969482422],[380,231.6999969482422],[381,234.6999969482422],[381,237.6999969482422],[381,240.6999969482422],[381,243.6999969482422],[381,246.6999969482422],[381,247.6999969482422],[381,249.6999969482422],[381,251.6999969482422],[381,254.6999969482422],[381,260.6999969482422],[381,268.6999969482422],[381,278.6999969482422],[381,286.6999969482422],[381,293.6999969482422],[381,302.6999969482422],[381,314.6999969482422],[381,324.6999969482422],[381,331.6999969482422],[381,338.6999969482422],[381,346.6999969482422],[381,356.6999969482422],[380,370.6999969482422],[379,383.6999969482422],[377,396.6999969482422],[377,408.6999969482422],[375,427.6999969482422],[374,439.6999969482422],[374,448.6999969482422],[374,450.6999969482422],[374,450.6999969482422],[373,450.6999969482422],[373,451.6999969482422],[373,454.6999969482422],[373,458.6999969482422],[373,460.6999969482422],[373,462.6999969482422],[373,460.6999969482422],[371,448.6999969482422],[366,431.6999969482422],[360,410.6999969482422],[347,374.6999969482422],[340,354.6999969482422],[336,338.6999969482422],[332,324.6999969482422],[328,308.6999969482422],[327,298.6999969482422],[326,290.6999969482422],[326,284.6999969482422],[326,282.6999969482422],[326,280.6999969482422],[326,279.6999969482422],[325,278.6999969482422],[325,277.6999969482422],[325,276.6999969482422],[325,275.6999969482422],[325,278.6999969482422],[325,286.6999969482422],[324,306.6999969482422],[321,333.6999969482422],[318,362.6999969482422],[318,394.6999969482422],[318,421.6999969482422],[318,442.6999969482422],[318,460.6999969482422],[318,468.6999969482422],[318,470.6999969482422],[318,471.6999969482422],[317,472.6999969482422],[317,473.6999969482422],[317,474.6999969482422],[317,474.6999969482422],[317,475.6999969482422],[317,476.6999969482422],[317,477.6999969482422],[313,475.6999969482422],[306,473.6999969482422],[288,467.6999969482422],[262,461.6999969482422],[235,453.6999969482422],[208,445.6999969482422],[176,436.6999969482422],[160,433.6999969482422],[149,431.6999969482422],[144,431.6999969482422],[139,431.6999969482422],[131,431.6999969482422],[124,432.6999969482422],[116,434.6999969482422],[107,436.6999969482422],[97,438.6999969482422],[93,438.6999969482422],[93,439.6999969482422],[92,440.6999969482422],[92,442.6999969482422],[92,443.6999969482422],[92,445.6999969482422],[92,446.6999969482422],[96,450.6999969482422],[104,452.6999969482422],[112,454.6999969482422],[136,458.6999969482422],[144,459.6999969482422],[160,461.6999969482422],[171,463.6999969482422],[178,466.6999969482422],[179,466.6999969482422],[180,466.6999969482422],[177,466.6999969482422],[172,466.6999969482422],[148,466.6999969482422],[121,466.6999969482422],[96,466.6999969482422],[75,463.6999969482422],[72,460.6999969482422],[72,459.6999969482422],[72,458.6999969482422],[72,455.6999969482422],[74,454.6999969482422],[74,453.6999969482422],[76,448.6999969482422],[78,446.6999969482422],[86,432.6999969482422],[94,422.6999969482422],[100,414.6999969482422],[107,406.6999969482422],[111,400.6999969482422],[112,393.6999969482422],[112,388.6999969482422],[113,383.6999969482422],[113,379.6999969482422],[113,372.6999969482422],[112,365.6999969482422],[109,354.6999969482422],[109,350.6999969482422],[108,344.6999969482422],[107,337.6999969482422],[107,331.6999969482422],[107,324.6999969482422],[107,320.6999969482422],[106,315.6999969482422],[105,312.6999969482422],[104,309.6999969482422],[104,306.6999969482422],[103,302.6999969482422],[102,298.6999969482422],[101,296.6999969482422],[100,293.6999969482422],[100,290.6999969482422],[99,286.6999969482422],[98,281.6999969482422],[97,277.6999969482422],[96,271.6999969482422],[96,264.6999969482422],[95,257.6999969482422],[94,250.6999969482422],[93,245.6999969482422],[92,239.6999969482422],[92,236.6999969482422],[92,233.6999969482422],[92,230.6999969482422],[92,229.6999969482422],[92,226.6999969482422],[92,225.6999969482422],[92,223.6999969482422],[92,220.6999969482422],[92,218.6999969482422],[92,215.6999969482422],[92,214.6999969482422],[92,211.6999969482422],[92,210.6999969482422],[92,208.6999969482422],[92,206.6999969482422],[92,204.6999969482422],[92,203.6999969482422],[92,202.6999969482422],[92,201.6999969482422],[92,199.6999969482422],[92,198.6999969482422],[92,198.6999969482422],[92,196.6999969482422],[92,195.6999969482422],[92,194.6999969482422],[92,194.6999969482422],[92,193.6999969482422],[92,192.6999969482422],[92,191.6999969482422],[92,190.6999969482422],[92,190.6999969482422],[92,189.6999969482422],[92,187.6999969482422],[92,185.6999969482422],[92,184.6999969482422],[92,182.6999969482422],[92,180.6999969482422],[92,178.6999969482422],[93,177.6999969482422],[93,176.6999969482422],[94,175.6999969482422],[94,174.6999969482422],[94,174.6999969482422],[96,171.6999969482422],[96,170.6999969482422],[97,169.6999969482422],[98,168.6999969482422],[99,166.6999969482422],[100,166.6999969482422],[100,162.6999969482422],[101,162.6999969482422],[104,159.6999969482422],[106,156.6999969482422],[106,155.6999969482422],[108,152.6999969482422],[110,149.6999969482422],[112,146.6999969482422],[112,145.6999969482422],[113,143.6999969482422],[114,142.6999969482422],[114,142.6999969482422],[115,141.6999969482422],[116,139.6999969482422],[116,136.6999969482422],[116,134.6999969482422],[117,133.6999969482422],[117,131.6999969482422],[117,130.6999969482422],[118,129.6999969482422],[118,126.69999694824219],[119,123.69999694824219],[120,121.69999694824219],[121,119.69999694824219],[123,114.69999694824219],[124,110.69999694824219],[124,109.69999694824219],[124,106.69999694824219],[124,105.69999694824219],[125,103.69999694824219],[126,102.69999694824219],[127,100.69999694824219],[128,97.69999694824219],[128,96.69999694824219],[128,94.69999694824219],[128,93.69999694824219],[128,92.69999694824219],[128,90.69999694824219],[128,87.69999694824219],[128,86.69999694824219],[128,82.69999694824219],[128,79.69999694824219],[128,77.69999694824219],[128,74.69999694824219],[128,71.69999694824219],[128,67.69999694824219],[128,64.69999694824219],[128,61.69999694824219],[127,56.69999694824219],[126,52.69999694824219],[125,47.69999694824219],[124,43.69999694824219],[122,39.69999694824219],[122,38.69999694824219],[121,37.69999694824219],[121,36.69999694824219],[121,34.69999694824219],[121,32.69999694824219],[121,29.699996948242188],[121,27.699996948242188],[121,26.699996948242188],[121,24.699996948242188],[121,23.699996948242188],[120,22.699996948242188],[120,24.699996948242188],[116,34.69999694824219],[116,38.69999694824219],[114,46.69999694824219],[112,50.69999694824219],[112,51.69999694824219],[112,54.69999694824219],[112,56.69999694824219],[111,62.69999694824219],[110,66.69999694824219],[110,70.69999694824219],[108,74.69999694824219],[108,76.69999694824219],[108,78.69999694824219],[108,80.69999694824219],[107,86.69999694824219],[105,92.69999694824219],[104,97.69999694824219],[104,102.69999694824219],[102,104.69999694824219],[102,106.69999694824219],[102,109.69999694824219],[102,110.69999694824219],[101,112.69999694824219],[101,114.69999694824219],[101,114.69999694824219],[101,115.69999694824219],[101,117.69999694824219],[100,118.69999694824219],[100,120.69999694824219],[100,122.69999694824219],[100,122.69999694824219],[100,123.69999694824219],[100,124.69999694824219],[100,126.69999694824219],[100,126.69999694824219],[100,128.6999969482422],[100,130.6999969482422],[100,131.6999969482422],[100,133.6999969482422],[100,134.6999969482422],[100,136.6999969482422],[100,138.6999969482422],[100,140.6999969482422],[100,142.6999969482422],[100,145.6999969482422],[100,147.6999969482422],[100,150.6999969482422],[101,150.6999969482422],[101,150.6999969482422],[102,150.6999969482422],[104,150.6999969482422],[107,149.6999969482422],[111,145.6999969482422],[114,139.6999969482422],[116,136.6999969482422],[118,134.6999969482422],[118,132.6999969482422],[119,130.6999969482422],[120,126.69999694824219],[121,123.69999694824219],[122,121.69999694824219],[124,119.69999694824219],[124,116.69999694824219],[125,114.69999694824219],[126,114.69999694824219],[127,111.69999694824219],[127,110.69999694824219],[128,110.69999694824219],[128,109.69999694824219],[128,108.69999694824219],[129,107.69999694824219],[130,107.69999694824219],[131,107.69999694824219],[132,106.69999694824219],[133,104.69999694824219],[135,103.69999694824219],[136,101.69999694824219],[137,100.69999694824219],[138,99.69999694824219],[139,98.69999694824219],[139,98.69999694824219],[139,100.69999694824219],[139,108.69999694824219],[139,110.69999694824219],[139,114.69999694824219],[139,115.69999694824219],[139,118.69999694824219],[139,122.69999694824219],[139,124.69999694824219],[139,128.6999969482422],[139,130.6999969482422],[139,132.6999969482422],[139,135.6999969482422],[139,138.6999969482422],[139,139.6999969482422],[139,141.6999969482422],[139,142.6999969482422],[139,143.6999969482422],[139,145.6999969482422],[139,146.6999969482422],[139,146.6999969482422],[139,148.6999969482422],[139,152.6999969482422],[139,155.6999969482422],[139,158.6999969482422],[139,162.6999969482422],[139,164.6999969482422],[139,166.6999969482422],[139,166.6999969482422],[139,167.6999969482422],[139,168.6999969482422],[140,170.6999969482422],[140,171.6999969482422],[140,172.6999969482422],[140,173.6999969482422],[140,174.6999969482422],[140,174.6999969482422],[140,175.6999969482422],[141,178.6999969482422],[141,178.6999969482422],[141,179.6999969482422],[142,182.6999969482422],[142,183.6999969482422],[143,186.6999969482422],[143,189.6999969482422],[143,194.6999969482422],[143,194.6999969482422],[143,196.6999969482422],[144,197.6999969482422],[144,198.6999969482422],[144,198.6999969482422],[144,199.6999969482422],[144,200.6999969482422],[144,201.6999969482422],[144,202.6999969482422],[144,203.6999969482422],[144,205.6999969482422],[144,206.6999969482422],[143,206.6999969482422],[142,207.6999969482422],[141,209.6999969482422],[140,210.6999969482422],[140,211.6999969482422],[137,214.6999969482422],[136,215.6999969482422],[135,217.6999969482422],[134,218.6999969482422],[132,222.6999969482422],[129,225.6999969482422],[126,227.6999969482422],[122,230.6999969482422],[121,232.6999969482422],[120,232.6999969482422],[119,233.6999969482422],[119,234.6999969482422],[119,235.6999969482422],[119,237.6999969482422],[119,239.6999969482422],[119,241.6999969482422],[119,243.6999969482422],[119,244.6999969482422],[119,246.6999969482422],[119,247.6999969482422],[119,250.6999969482422],[120,251.6999969482422],[121,252.6999969482422],[121,253.6999969482422],[123,254.6999969482422],[124,254.6999969482422],[125,254.6999969482422],[127,254.6999969482422],[128,254.6999969482422],[128,254.6999969482422],[129,254.6999969482422],[130,255.6999969482422],[131,256.6999969482422],[132,256.6999969482422],[132,257.6999969482422],[133,258.6999969482422],[133,261.6999969482422],[134,262.6999969482422],[134,264.6999969482422],[135,266.6999969482422],[135,267.6999969482422],[136,270.6999969482422],[136,271.6999969482422],[136,274.6999969482422],[136,275.6999969482422],[136,278.6999969482422],[136,279.6999969482422],[136,281.6999969482422],[136,282.6999969482422],[136,282.6999969482422],[136,284.6999969482422],[136,285.6999969482422],[136,286.6999969482422],[136,283.6999969482422],[136,274.6999969482422],[136,267.6999969482422],[137,262.6999969482422],[138,245.6999969482422],[138,238.6999969482422],[138,234.6999969482422],[138,232.6999969482422],[138,231.6999969482422],[138,230.6999969482422],[137,229.6999969482422],[135,226.6999969482422],[132,223.6999969482422],[128,219.6999969482422],[127,217.6999969482422],[125,215.6999969482422],[121,212.6999969482422],[120,210.6999969482422],[117,209.6999969482422],[113,206.6999969482422],[111,204.6999969482422],[110,203.6999969482422],[108,202.6999969482422],[108,201.6999969482422],[107,200.6999969482422],[106,200.6999969482422],[104,199.6999969482422],[104,198.6999969482422],[103,198.6999969482422],[101,198.6999969482422],[101,197.6999969482422],[100,196.6999969482422],[100,196.6999969482422],[98,194.6999969482422],[96,194.6999969482422],[95,192.6999969482422],[92,190.6999969482422],[92,189.6999969482422],[90,189.6999969482422],[89,188.6999969482422],[89,187.6999969482422],[88,187.6999969482422],[88,187.6999969482422],[88,190.6999969482422],[88,194.6999969482422],[88,198.6999969482422],[88,201.6999969482422],[88,203.6999969482422],[88,206.6999969482422],[88,206.6999969482422],[88,209.6999969482422],[88,211.6999969482422],[88,213.6999969482422],[88,214.6999969482422],[89,217.6999969482422],[89,219.6999969482422],[90,222.6999969482422],[91,224.6999969482422],[92,228.6999969482422],[93,230.6999969482422],[94,233.6999969482422],[94,235.6999969482422],[95,238.6999969482422],[96,241.6999969482422],[98,244.6999969482422],[100,249.6999969482422],[102,253.6999969482422],[102,257.6999969482422],[104,260.6999969482422],[107,265.6999969482422],[108,267.6999969482422],[110,269.6999969482422],[110,270.6999969482422],[111,270.6999969482422],[112,270.6999969482422],[113,271.6999969482422],[116,274.6999969482422],[120,278.6999969482422],[123,280.6999969482422],[129,287.6999969482422],[133,293.6999969482422],[137,302.6999969482422],[144,316.6999969482422],[148,325.6999969482422],[153,333.6999969482422],[156,338.6999969482422],[157,343.6999969482422],[159,345.6999969482422],[159,346.6999969482422],[160,349.6999969482422],[160,353.6999969482422],[161,356.6999969482422],[162,366.6999969482422],[162,377.6999969482422],[162,382.6999969482422],[162,388.6999969482422],[162,394.6999969482422],[162,400.6999969482422],[162,408.6999969482422],[162,414.6999969482422],[162,419.6999969482422],[162,429.6999969482422],[162,430.6999969482422],[162,433.6999969482422],[162,434.6999969482422],[162,437.6999969482422],[162,434.6999969482422],[160,424.6999969482422],[157,409.6999969482422],[155,394.6999969482422],[152,380.6999969482422],[152,379.6999969482422]]},{\"color\":\"#fd0202\",\"size\":\"60\",\"width\":480,\"height\":480,\"stroke\":[[353,146.6999969482422],[354,146.6999969482422],[355,146.6999969482422],[356,146.6999969482422],[356,145.6999969482422],[357,145.6999969482422],[358,145.6999969482422],[359,145.6999969482422],[360,145.6999969482422],[360,145.6999969482422],[361,144.6999969482422],[362,144.6999969482422],[363,144.6999969482422],[364,143.6999969482422],[365,142.6999969482422],[367,141.6999969482422],[368,141.6999969482422],[372,138.6999969482422],[373,137.6999969482422],[374,137.6999969482422],[374,136.6999969482422],[374,135.6999969482422],[374,134.6999969482422],[375,134.6999969482422],[376,134.6999969482422],[376,134.6999969482422],[376,136.6999969482422],[376,139.6999969482422],[376,141.6999969482422],[376,143.6999969482422],[376,145.6999969482422],[376,146.6999969482422],[376,147.6999969482422],[376,148.6999969482422],[376,149.6999969482422],[376,150.6999969482422],[376,152.6999969482422],[376,153.6999969482422],[376,154.6999969482422],[376,156.6999969482422],[376,157.6999969482422],[376,158.6999969482422],[376,158.6999969482422],[376,159.6999969482422],[376,160.6999969482422],[376,161.6999969482422],[376,162.6999969482422],[377,162.6999969482422],[378,162.6999969482422],[378,163.6999969482422],[378,164.6999969482422],[378,165.6999969482422],[378,166.6999969482422],[378,166.6999969482422],[379,167.6999969482422],[379,168.6999969482422],[380,169.6999969482422],[380,170.6999969482422],[380,170.6999969482422],[380,171.6999969482422],[380,172.6999969482422],[380,173.6999969482422],[380,174.6999969482422],[380,174.6999969482422],[380,175.6999969482422],[380,176.6999969482422],[380,177.6999969482422],[380,178.6999969482422],[380,180.6999969482422],[380,181.6999969482422],[380,182.6999969482422],[380,182.6999969482422],[380,184.6999969482422],[380,186.6999969482422],[380,187.6999969482422],[380,188.6999969482422],[380,190.6999969482422],[380,191.6999969482422],[380,192.6999969482422],[378,191.6999969482422],[377,190.6999969482422],[376,189.6999969482422],[374,186.6999969482422],[373,185.6999969482422],[372,183.6999969482422],[371,182.6999969482422],[370,181.6999969482422],[367,178.6999969482422],[364,174.6999969482422],[362,171.6999969482422],[360,169.6999969482422],[360,168.6999969482422],[359,166.6999969482422],[358,166.6999969482422],[358,165.6999969482422],[356,163.6999969482422],[356,162.6999969482422],[356,160.6999969482422],[355,160.6999969482422],[354,158.6999969482422],[352,156.6999969482422],[350,153.6999969482422],[348,150.6999969482422],[347,149.6999969482422],[347,148.6999969482422],[347,147.6999969482422],[346,147.6999969482422],[345,146.6999969482422],[344,145.6999969482422],[344,144.6999969482422],[344,142.6999969482422],[343,141.6999969482422],[342,139.6999969482422],[342,138.6999969482422],[342,137.6999969482422],[342,136.6999969482422],[342,137.6999969482422],[343,138.6999969482422],[343,139.6999969482422],[343,141.6999969482422],[344,142.6999969482422],[344,145.6999969482422],[344,147.6999969482422],[344,150.6999969482422],[344,152.6999969482422],[344,154.6999969482422],[344,158.6999969482422],[344,159.6999969482422],[344,161.6999969482422],[344,162.6999969482422],[344,162.6999969482422],[344,164.6999969482422],[344,165.6999969482422],[344,166.6999969482422],[344,167.6999969482422],[344,168.6999969482422],[344,169.6999969482422],[344,170.6999969482422],[344,170.6999969482422],[344,173.6999969482422],[344,174.6999969482422],[344,174.6999969482422],[344,176.6999969482422],[344,178.6999969482422],[344,178.6999969482422]]}]","trial_type":"paint","trial_index":1,"time_elapsed":73354,"internal_node_id":"0.0-1.0","participant_id":3707103,"xgorilla":{"user_agent":"Mozilla/5.0 (Windows NT 10.0; Win64; x64) AppleWebKit/537.36 (KHTML, like Gecko) Chrome/90.0.4430.93 Safari/537.36","screen_size":"1536x864","browser_size":"1536x722"},"duration":73876,"interactionData":"[]"}]