[{"view_history":"[{\"page_index\":0,\"viewing_time\":8317.480000001524}]","rt":8317.995000001247,"trial_type":"instructions","trial_index":0,"time_elapsed":8325,"internal_node_id":"0.0-0.0","participant_id":3908187,"xgorilla":{"user_agent":"Mozilla/5.0 (Windows NT 10.0; Win64; x64) AppleWebKit/537.36 (KHTML, like Gecko) Chrome/90.0.4430.212 Safari/537.36","screen_size":"1280x720","browser_size":"1280x610"}},{"instructions":"Choose colors from the palette bar, and paint on the body to show how comfortable/uncomfortable you would be if a stranger touched you there.","rt":296324,"strokes":"[{\"color\":\"#ef1010\",\"size\":\"5.5\",\"width\":480,\"height\":480,\"stroke\":[[92.33332824707031,470.3333282470703],[92.33332824707031,470.3333282470703],[91.33332824707031,470.3333282470703],[90.33332824707031,470.3333282470703],[88.33332824707031,470.3333282470703],[87.33332824707031,470.3333282470703],[84.33332824707031,470.3333282470703],[83.33332824707031,470.3333282470703],[82.33332824707031,470.3333282470703],[82.33332824707031,470.3333282470703],[80.33332824707031,470.3333282470703],[80.33332824707031,470.3333282470703],[79.33332824707031,470.3333282470703],[78.33332824707031,470.3333282470703],[78.33332824707031,470.3333282470703],[77.33332824707031,470.3333282470703],[77.33332824707031,469.3333282470703],[77.33332824707031,468.3333282470703],[78.33332824707031,468.3333282470703],[78.33332824707031,468.3333282470703],[80.33332824707031,468.3333282470703],[82.33332824707031,468.3333282470703],[83.33332824707031,468.3333282470703],[84.33332824707031,468.3333282470703],[86.33332824707031,468.3333282470703],[86.33332824707031,468.3333282470703],[87.33332824707031,468.3333282470703],[88.33332824707031,468.3333282470703],[88.33332824707031,468.3333282470703],[89.33332824707031,468.3333282470703],[90.33332824707031,468.3333282470703],[90.33332824707031,468.3333282470703],[91.33332824707031,469.3333282470703],[92.33332824707031,469.3333282470703],[92.33332824707031,469.3333282470703],[92.33332824707031,470.3333282470703],[93.33332824707031,470.3333282470703],[93.33332824707031,469.3333282470703],[93.33332824707031,467.3333282470703],[93.33332824707031,465.3333282470703],[93.33332824707031,464.3333282470703],[93.33332824707031,462.3333282470703],[92.33332824707031,461.3333282470703],[92.33332824707031,460.3333282470703],[92.33332824707031,460.3333282470703],[92.33332824707031,459.3333282470703],[92.33332824707031,458.3333282470703],[92.33332824707031,458.3333282470703],[92.33332824707031,456.3333282470703],[92.33332824707031,456.3333282470703],[92.33332824707031,455.3333282470703],[92.33332824707031,453.3333282470703],[92.33332824707031,452.3333282470703],[92.33332824707031,450.3333282470703],[92.33332824707031,449.3333282470703],[93.33332824707031,448.3333282470703],[93.33332824707031,447.3333282470703],[94.33332824707031,447.3333282470703],[94.33332824707031,446.3333282470703],[94.33332824707031,446.3333282470703],[95.33332824707031,446.3333282470703],[96.33332824707031,446.3333282470703],[96.33332824707031,446.3333282470703],[97.33332824707031,446.3333282470703],[98.33332824707031,446.3333282470703],[98.33332824707031,447.3333282470703],[100.33332824707031,447.3333282470703],[100.33332824707031,447.3333282470703],[101.33332824707031,447.3333282470703],[102.33332824707031,447.3333282470703],[102.33332824707031,447.3333282470703],[103.33332824707031,447.3333282470703],[104.33332824707031,447.3333282470703],[104.33332824707031,447.3333282470703],[105.33332824707031,447.3333282470703],[106.33332824707031,447.3333282470703],[106.33332824707031,446.3333282470703],[107.33332824707031,446.3333282470703],[108.33332824707031,446.3333282470703],[108.33332824707031,446.3333282470703],[109.33332824707031,446.3333282470703],[109.33332824707031,446.3333282470703],[110.33332824707031,446.3333282470703],[110.33332824707031,445.3333282470703],[110.33332824707031,445.3333282470703],[111.33332824707031,444.3333282470703],[112.33332824707031,444.3333282470703],[112.33332824707031,444.3333282470703],[113.33332824707031,444.3333282470703],[113.33332824707031,445.3333282470703],[114.33332824707031,446.3333282470703],[114.33332824707031,446.3333282470703],[114.33332824707031,447.3333282470703],[114.33332824707031,448.3333282470703],[114.33332824707031,450.3333282470703],[113.33332824707031,451.3333282470703],[112.33332824707031,454.3333282470703],[111.33332824707031,455.3333282470703],[110.33332824707031,456.3333282470703],[110.33332824707031,458.3333282470703],[109.33332824707031,458.3333282470703],[108.33332824707031,458.3333282470703],[108.33332824707031,459.3333282470703],[107.33332824707031,460.3333282470703],[106.33332824707031,460.3333282470703],[106.33332824707031,461.3333282470703],[105.33332824707031,462.3333282470703],[103.33332824707031,463.3333282470703],[102.33332824707031,464.3333282470703],[102.33332824707031,464.3333282470703],[101.33332824707031,466.3333282470703],[99.33332824707031,468.3333282470703],[98.33332824707031,470.3333282470703],[97.33332824707031,471.3333282470703],[96.33332824707031,473.3333282470703],[94.33332824707031,476.3333282470703],[93.33332824707031,478.3333282470703],[92.33332824707031,479.3333282470703],[92.33332824707031,480.3333282470703],[92.33332824707031,480.3333282470703],[92.33332824707031,479.3333282470703],[92.33332824707031,478.3333282470703],[92.33332824707031,477.3333282470703],[92.33332824707031,475.3333282470703],[92.33332824707031,473.3333282470703],[92.33332824707031,472.3333282470703],[92.33332824707031,469.3333282470703],[94.33332824707031,465.3333282470703],[96.33332824707031,462.3333282470703],[96.33332824707031,460.3333282470703],[98.33332824707031,458.3333282470703],[98.33332824707031,456.3333282470703],[99.33332824707031,455.3333282470703],[99.33332824707031,454.3333282470703],[100.33332824707031,454.3333282470703],[102.33332824707031,453.3333282470703],[102.33332824707031,452.3333282470703],[103.33332824707031,452.3333282470703],[104.33332824707031,452.3333282470703],[105.33332824707031,451.3333282470703],[106.33332824707031,450.3333282470703],[106.33332824707031,450.3333282470703],[107.33332824707031,450.3333282470703],[108.33332824707031,450.3333282470703],[109.33332824707031,450.3333282470703],[110.33332824707031,450.3333282470703],[112.33332824707031,450.3333282470703],[112.33332824707031,450.3333282470703],[114.33332824707031,450.3333282470703],[114.33332824707031,450.3333282470703],[114.33332824707031,451.3333282470703],[115.33332824707031,451.3333282470703],[114.33332824707031,451.3333282470703],[114.33332824707031,451.3333282470703],[113.33332824707031,451.3333282470703],[111.33332824707031,452.3333282470703],[108.33332824707031,452.3333282470703],[108.33332824707031,452.3333282470703],[106.33332824707031,452.3333282470703],[105.33332824707031,452.3333282470703],[103.33332824707031,452.3333282470703],[102.33332824707031,452.3333282470703],[101.33332824707031,452.3333282470703],[100.33332824707031,452.3333282470703],[99.33332824707031,452.3333282470703],[98.33332824707031,452.3333282470703],[98.33332824707031,452.3333282470703],[97.33332824707031,452.3333282470703],[96.33332824707031,452.3333282470703],[96.33332824707031,452.3333282470703],[95.33332824707031,452.3333282470703],[96.33332824707031,452.3333282470703],[96.33332824707031,452.3333282470703],[98.33332824707031,452.3333282470703],[98.33332824707031,452.3333282470703],[99.33332824707031,452.3333282470703],[100.33332824707031,452.3333282470703],[101.33332824707031,452.3333282470703],[102.33332824707031,452.3333282470703],[102.33332824707031,452.3333282470703],[102.33332824707031,453.3333282470703],[103.33332824707031,454.3333282470703],[104.33332824707031,454.3333282470703],[104.33332824707031,455.3333282470703],[104.33332824707031,456.3333282470703],[104.33332824707031,456.3333282470703],[104.33332824707031,457.3333282470703],[104.33332824707031,458.3333282470703],[104.33332824707031,459.3333282470703],[104.33332824707031,460.3333282470703],[103.33332824707031,460.3333282470703],[103.33332824707031,460.3333282470703],[102.33332824707031,460.3333282470703],[102.33332824707031,461.3333282470703],[101.33332824707031,461.3333282470703],[99.33332824707031,462.3333282470703],[98.33332824707031,462.3333282470703],[98.33332824707031,462.3333282470703],[97.33332824707031,462.3333282470703],[96.33332824707031,462.3333282470703],[95.33332824707031,462.3333282470703],[94.33332824707031,462.3333282470703],[94.33332824707031,461.3333282470703],[94.33332824707031,461.3333282470703],[93.33332824707031,460.3333282470703],[92.33332824707031,460.3333282470703],[92.33332824707031,460.3333282470703],[92.33332824707031,459.3333282470703],[91.33332824707031,458.3333282470703],[91.33332824707031,458.3333282470703],[91.33332824707031,457.3333282470703],[91.33332824707031,456.3333282470703],[91.33332824707031,456.3333282470703],[91.33332824707031,454.3333282470703],[91.33332824707031,454.3333282470703],[90.33332824707031,454.3333282470703],[90.33332824707031,454.3333282470703],[89.33332824707031,454.3333282470703],[89.33332824707031,454.3333282470703],[88.33332824707031,454.3333282470703],[88.33332824707031,455.3333282470703],[88.33332824707031,456.3333282470703],[88.33332824707031,458.3333282470703],[87.33332824707031,459.3333282470703],[86.33332824707031,460.3333282470703],[86.33332824707031,462.3333282470703],[84.33332824707031,464.3333282470703],[84.33332824707031,466.3333282470703],[84.33332824707031,466.3333282470703],[84.33332824707031,467.3333282470703],[83.33332824707031,468.3333282470703],[83.33332824707031,468.3333282470703],[82.33332824707031,468.3333282470703],[82.33332824707031,467.3333282470703],[81.33332824707031,465.3333282470703],[81.33332824707031,464.3333282470703],[81.33332824707031,458.3333282470703],[81.33332824707031,456.3333282470703],[81.33332824707031,455.3333282470703],[81.33332824707031,454.3333282470703],[81.33332824707031,455.3333282470703],[81.33332824707031,456.3333282470703],[81.33332824707031,457.3333282470703],[81.33332824707031,458.3333282470703],[81.33332824707031,460.3333282470703],[82.33332824707031,462.3333282470703],[82.33332824707031,462.3333282470703],[84.33332824707031,464.3333282470703],[84.33332824707031,466.3333282470703],[84.33332824707031,466.3333282470703],[85.33332824707031,467.3333282470703],[85.33332824707031,468.3333282470703],[86.33332824707031,468.3333282470703],[86.33332824707031,468.3333282470703],[87.33332824707031,468.3333282470703],[88.33332824707031,468.3333282470703],[88.33332824707031,468.3333282470703],[89.33332824707031,468.3333282470703],[90.33332824707031,469.3333282470703],[91.33332824707031,470.3333282470703],[92.33332824707031,471.3333282470703],[93.33332824707031,472.3333282470703],[94.33332824707031,473.3333282470703],[94.33332824707031,474.3333282470703],[94.33332824707031,474.3333282470703],[95.33332824707031,475.3333282470703],[95.33332824707031,476.3333282470703],[96.33332824707031,476.3333282470703],[96.33332824707031,476.3333282470703],[96.33332824707031,476.3333282470703],[96.33332824707031,476.3333282470703],[96.33332824707031,474.3333282470703],[96.33332824707031,472.3333282470703],[96.33332824707031,472.3333282470703],[96.33332824707031,470.3333282470703],[96.33332824707031,468.3333282470703],[94.33332824707031,468.3333282470703],[94.33332824707031,467.3333282470703],[93.33332824707031,466.3333282470703],[93.33332824707031,466.3333282470703],[92.33332824707031,466.3333282470703],[90.33332824707031,466.3333282470703],[89.33332824707031,466.3333282470703],[88.33332824707031,466.3333282470703],[87.33332824707031,466.3333282470703],[86.33332824707031,466.3333282470703],[85.33332824707031,466.3333282470703],[84.33332824707031,466.3333282470703],[84.33332824707031,467.3333282470703],[83.33332824707031,467.3333282470703],[83.33332824707031,468.3333282470703],[82.33332824707031,468.3333282470703],[82.33332824707031,468.3333282470703],[81.33332824707031,468.3333282470703],[81.33332824707031,467.3333282470703],[82.33332824707031,467.3333282470703],[82.33332824707031,467.3333282470703],[84.33332824707031,467.3333282470703],[85.33332824707031,467.3333282470703],[86.33332824707031,467.3333282470703],[88.33332824707031,468.3333282470703],[88.33332824707031,469.3333282470703],[90.33332824707031,470.3333282470703],[90.33332824707031,470.3333282470703],[91.33332824707031,470.3333282470703],[92.33332824707031,470.3333282470703],[92.33332824707031,470.3333282470703],[92.33332824707031,470.3333282470703],[92.33332824707031,469.3333282470703],[92.33332824707031,467.3333282470703],[92.33332824707031,466.3333282470703],[92.33332824707031,464.3333282470703],[92.33332824707031,462.3333282470703],[92.33332824707031,462.3333282470703],[92.33332824707031,460.3333282470703],[92.33332824707031,460.3333282470703],[92.33332824707031,459.3333282470703],[92.33332824707031,458.3333282470703],[92.33332824707031,459.3333282470703],[92.33332824707031,459.3333282470703],[92.33332824707031,460.3333282470703]]},{\"color\":\"#ef1010\",\"size\":\"22.5\",\"width\":480,\"height\":480,\"stroke\":[[152.3333282470703,470.3333282470703],[151.3333282470703,470.3333282470703],[150.3333282470703,470.3333282470703],[150.3333282470703,470.3333282470703],[149.3333282470703,470.3333282470703],[148.3333282470703,470.3333282470703],[148.3333282470703,470.3333282470703],[147.3333282470703,470.3333282470703],[146.3333282470703,470.3333282470703],[145.3333282470703,470.3333282470703],[144.3333282470703,470.3333282470703],[144.3333282470703,470.3333282470703],[143.3333282470703,470.3333282470703],[142.3333282470703,470.3333282470703],[142.3333282470703,470.3333282470703],[141.3333282470703,470.3333282470703],[140.3333282470703,470.3333282470703],[140.3333282470703,470.3333282470703],[139.3333282470703,469.3333282470703],[139.3333282470703,468.3333282470703],[139.3333282470703,468.3333282470703],[139.3333282470703,467.3333282470703],[139.3333282470703,466.3333282470703],[139.3333282470703,466.3333282470703],[139.3333282470703,464.3333282470703],[139.3333282470703,464.3333282470703],[139.3333282470703,463.3333282470703],[139.3333282470703,462.3333282470703],[139.3333282470703,462.3333282470703],[139.3333282470703,461.3333282470703],[139.3333282470703,460.3333282470703],[140.3333282470703,460.3333282470703],[140.3333282470703,460.3333282470703],[141.3333282470703,460.3333282470703],[142.3333282470703,460.3333282470703],[142.3333282470703,460.3333282470703],[143.3333282470703,460.3333282470703],[144.3333282470703,460.3333282470703],[144.3333282470703,460.3333282470703],[145.3333282470703,460.3333282470703],[146.3333282470703,460.3333282470703],[146.3333282470703,460.3333282470703],[147.3333282470703,460.3333282470703],[148.3333282470703,460.3333282470703],[148.3333282470703,460.3333282470703],[149.3333282470703,460.3333282470703],[150.3333282470703,460.3333282470703],[150.3333282470703,460.3333282470703],[152.3333282470703,460.3333282470703],[154.3333282470703,460.3333282470703],[154.3333282470703,460.3333282470703],[155.3333282470703,460.3333282470703],[156.3333282470703,460.3333282470703],[156.3333282470703,460.3333282470703],[157.3333282470703,460.3333282470703],[157.3333282470703,459.3333282470703],[156.3333282470703,458.3333282470703],[154.3333282470703,458.3333282470703],[154.3333282470703,457.3333282470703],[153.3333282470703,457.3333282470703],[152.3333282470703,457.3333282470703],[152.3333282470703,457.3333282470703],[151.3333282470703,457.3333282470703],[150.3333282470703,457.3333282470703],[150.3333282470703,457.3333282470703],[149.3333282470703,457.3333282470703],[148.3333282470703,457.3333282470703],[148.3333282470703,457.3333282470703],[147.3333282470703,457.3333282470703],[146.3333282470703,457.3333282470703],[146.3333282470703,457.3333282470703],[145.3333282470703,457.3333282470703],[144.3333282470703,457.3333282470703],[142.3333282470703,457.3333282470703],[142.3333282470703,457.3333282470703],[140.3333282470703,457.3333282470703],[140.3333282470703,457.3333282470703],[139.3333282470703,457.3333282470703],[138.3333282470703,457.3333282470703],[137.3333282470703,457.3333282470703],[136.3333282470703,457.3333282470703],[136.3333282470703,457.3333282470703],[135.3333282470703,457.3333282470703],[134.3333282470703,457.3333282470703],[134.3333282470703,457.3333282470703],[133.3333282470703,457.3333282470703],[132.3333282470703,457.3333282470703],[132.3333282470703,457.3333282470703],[131.3333282470703,457.3333282470703],[130.3333282470703,457.3333282470703],[130.3333282470703,457.3333282470703],[129.3333282470703,457.3333282470703],[129.3333282470703,456.3333282470703],[129.3333282470703,456.3333282470703],[130.3333282470703,456.3333282470703],[131.3333282470703,456.3333282470703],[132.3333282470703,455.3333282470703],[133.3333282470703,455.3333282470703],[134.3333282470703,455.3333282470703],[134.3333282470703,455.3333282470703],[136.3333282470703,455.3333282470703],[137.3333282470703,455.3333282470703],[138.3333282470703,455.3333282470703],[138.3333282470703,455.3333282470703],[139.3333282470703,455.3333282470703],[140.3333282470703,455.3333282470703],[140.3333282470703,455.3333282470703],[141.3333282470703,455.3333282470703],[142.3333282470703,455.3333282470703],[142.3333282470703,455.3333282470703],[143.3333282470703,455.3333282470703],[144.3333282470703,455.3333282470703],[144.3333282470703,455.3333282470703],[145.3333282470703,455.3333282470703],[146.3333282470703,455.3333282470703],[146.3333282470703,455.3333282470703],[146.3333282470703,454.3333282470703],[147.3333282470703,454.3333282470703],[148.3333282470703,454.3333282470703],[148.3333282470703,454.3333282470703],[149.3333282470703,454.3333282470703],[149.3333282470703,453.3333282470703],[150.3333282470703,453.3333282470703],[151.3333282470703,453.3333282470703],[151.3333282470703,452.3333282470703],[152.3333282470703,452.3333282470703],[152.3333282470703,452.3333282470703]]},{\"color\":\"#ef1010\",\"size\":\"22.5\",\"width\":480,\"height\":480,\"stroke\":[[97.33332824707031,475.3333282470703],[96.33332824707031,475.3333282470703],[93.33332824707031,475.3333282470703],[86.33332824707031,475.3333282470703],[81.33332824707031,475.3333282470703],[76.33332824707031,474.3333282470703],[72.33332824707031,473.3333282470703],[70.33332824707031,472.3333282470703],[68.33332824707031,472.3333282470703],[66.33332824707031,472.3333282470703],[66.33332824707031,472.3333282470703],[65.33332824707031,472.3333282470703],[64.33332824707031,472.3333282470703],[64.33332824707031,472.3333282470703],[64.33332824707031,472.3333282470703],[64.33332824707031,471.3333282470703],[64.33332824707031,470.3333282470703],[65.33332824707031,469.3333282470703],[69.33332824707031,466.3333282470703],[75.33332824707031,465.3333282470703],[78.33332824707031,464.3333282470703],[80.33332824707031,463.3333282470703],[83.33332824707031,463.3333282470703],[84.33332824707031,463.3333282470703],[85.33332824707031,463.3333282470703],[86.33332824707031,463.3333282470703],[87.33332824707031,463.3333282470703],[88.33332824707031,463.3333282470703],[88.33332824707031,463.3333282470703],[88.33332824707031,464.3333282470703],[89.33332824707031,464.3333282470703],[90.33332824707031,464.3333282470703],[90.33332824707031,464.3333282470703],[90.33332824707031,465.3333282470703],[91.33332824707031,465.3333282470703],[92.33332824707031,465.3333282470703],[94.33332824707031,465.3333282470703],[96.33332824707031,465.3333282470703],[99.33332824707031,465.3333282470703],[100.33332824707031,465.3333282470703],[101.33332824707031,465.3333282470703],[103.33332824707031,465.3333282470703],[104.33332824707031,465.3333282470703],[105.33332824707031,465.3333282470703],[106.33332824707031,465.3333282470703],[106.33332824707031,464.3333282470703],[106.33332824707031,464.3333282470703],[106.33332824707031,463.3333282470703],[106.33332824707031,462.3333282470703],[106.33332824707031,462.3333282470703],[106.33332824707031,461.3333282470703],[106.33332824707031,461.3333282470703],[105.33332824707031,461.3333282470703],[104.33332824707031,461.3333282470703],[104.33332824707031,461.3333282470703],[103.33332824707031,461.3333282470703],[102.33332824707031,461.3333282470703],[101.33332824707031,460.3333282470703],[100.33332824707031,460.3333282470703],[99.33332824707031,460.3333282470703],[98.33332824707031,460.3333282470703],[98.33332824707031,460.3333282470703],[97.33332824707031,460.3333282470703],[96.33332824707031,460.3333282470703],[96.33332824707031,460.3333282470703]]},{\"color\":\"#04fbfb\",\"size\":\"22.5\",\"width\":480,\"height\":480,\"stroke\":[[285.3333282470703,264.3333282470703],[284.3333282470703,264.3333282470703],[284.3333282470703,264.3333282470703],[283.3333282470703,263.3333282470703],[283.3333282470703,262.3333282470703],[282.3333282470703,262.3333282470703],[282.3333282470703,261.3333282470703],[281.3333282470703,260.3333282470703],[280.3333282470703,260.3333282470703],[280.3333282470703,260.3333282470703],[280.3333282470703,259.3333282470703],[279.3333282470703,259.3333282470703],[279.3333282470703,258.3333282470703],[279.3333282470703,258.3333282470703],[279.3333282470703,257.3333282470703],[279.3333282470703,256.3333282470703],[279.3333282470703,256.3333282470703],[280.3333282470703,256.3333282470703],[281.3333282470703,256.3333282470703],[282.3333282470703,256.3333282470703],[282.3333282470703,256.3333282470703],[283.3333282470703,256.3333282470703],[284.3333282470703,256.3333282470703],[284.3333282470703,256.3333282470703],[285.3333282470703,256.3333282470703],[286.3333282470703,256.3333282470703],[286.3333282470703,256.3333282470703],[287.3333282470703,256.3333282470703],[288.3333282470703,256.3333282470703],[288.3333282470703,256.3333282470703],[289.3333282470703,256.3333282470703],[290.3333282470703,256.3333282470703],[290.3333282470703,256.3333282470703],[291.3333282470703,256.3333282470703],[292.3333282470703,256.3333282470703],[292.3333282470703,256.3333282470703],[294.3333282470703,256.3333282470703],[295.3333282470703,256.3333282470703],[296.3333282470703,256.3333282470703],[296.3333282470703,257.3333282470703],[296.3333282470703,258.3333282470703],[296.3333282470703,258.3333282470703],[296.3333282470703,259.3333282470703],[296.3333282470703,260.3333282470703],[296.3333282470703,260.3333282470703],[296.3333282470703,261.3333282470703],[295.3333282470703,262.3333282470703],[294.3333282470703,262.3333282470703],[293.3333282470703,262.3333282470703],[292.3333282470703,263.3333282470703],[290.3333282470703,263.3333282470703],[289.3333282470703,263.3333282470703],[288.3333282470703,263.3333282470703],[288.3333282470703,263.3333282470703],[286.3333282470703,263.3333282470703],[286.3333282470703,263.3333282470703],[285.3333282470703,264.3333282470703],[284.3333282470703,264.3333282470703],[283.3333282470703,265.3333282470703],[282.3333282470703,265.3333282470703],[282.3333282470703,265.3333282470703],[282.3333282470703,266.3333282470703],[281.3333282470703,266.3333282470703],[281.3333282470703,266.3333282470703],[280.3333282470703,267.3333282470703],[280.3333282470703,267.3333282470703],[280.3333282470703,268.3333282470703],[280.3333282470703,268.3333282470703],[280.3333282470703,270.3333282470703],[279.3333282470703,271.3333282470703],[279.3333282470703,272.3333282470703],[279.3333282470703,273.3333282470703],[279.3333282470703,274.3333282470703],[279.3333282470703,274.3333282470703],[280.3333282470703,274.3333282470703],[280.3333282470703,275.3333282470703],[281.3333282470703,275.3333282470703],[282.3333282470703,275.3333282470703],[283.3333282470703,275.3333282470703],[284.3333282470703,275.3333282470703],[285.3333282470703,275.3333282470703],[286.3333282470703,275.3333282470703],[287.3333282470703,275.3333282470703],[287.3333282470703,274.3333282470703],[287.3333282470703,274.3333282470703],[288.3333282470703,274.3333282470703],[288.3333282470703,273.3333282470703],[288.3333282470703,272.3333282470703],[288.3333282470703,272.3333282470703],[288.3333282470703,270.3333282470703],[288.3333282470703,269.3333282470703],[288.3333282470703,268.3333282470703],[288.3333282470703,266.3333282470703],[288.3333282470703,266.3333282470703],[288.3333282470703,264.3333282470703],[288.3333282470703,263.3333282470703],[288.3333282470703,262.3333282470703],[288.3333282470703,260.3333282470703],[288.3333282470703,260.3333282470703],[288.3333282470703,259.3333282470703],[288.3333282470703,258.3333282470703],[288.3333282470703,257.3333282470703],[288.3333282470703,256.3333282470703],[288.3333282470703,256.3333282470703],[288.3333282470703,255.3333282470703],[288.3333282470703,254.3333282470703],[288.3333282470703,254.3333282470703],[288.3333282470703,253.3333282470703],[288.3333282470703,252.3333282470703],[288.3333282470703,251.3333282470703],[288.3333282470703,250.3333282470703],[288.3333282470703,250.3333282470703],[288.3333282470703,248.3333282470703],[288.3333282470703,248.3333282470703],[288.3333282470703,247.3333282470703],[288.3333282470703,246.3333282470703],[288.3333282470703,246.3333282470703],[289.3333282470703,246.3333282470703],[290.3333282470703,246.3333282470703],[291.3333282470703,246.3333282470703],[292.3333282470703,246.3333282470703],[292.3333282470703,246.3333282470703],[294.3333282470703,246.3333282470703]]},{\"color\":\"#04fbfb\",\"size\":\"22.5\",\"width\":480,\"height\":480,\"stroke\":[[430.3333282470703,272.3333282470703],[430.3333282470703,270.3333282470703],[430.3333282470703,267.3333282470703],[428.3333282470703,263.3333282470703],[428.3333282470703,262.3333282470703],[428.3333282470703,260.3333282470703],[428.3333282470703,260.3333282470703],[428.3333282470703,259.3333282470703],[428.3333282470703,258.3333282470703],[428.3333282470703,258.3333282470703],[429.3333282470703,258.3333282470703],[429.3333282470703,257.3333282470703],[430.3333282470703,256.3333282470703],[430.3333282470703,256.3333282470703],[430.3333282470703,256.3333282470703],[431.3333282470703,256.3333282470703],[432.3333282470703,255.3333282470703],[433.3333282470703,254.3333282470703],[434.3333282470703,254.3333282470703],[435.3333282470703,252.3333282470703],[435.3333282470703,251.3333282470703],[436.3333282470703,251.3333282470703],[436.3333282470703,251.3333282470703],[437.3333282470703,251.3333282470703],[436.3333282470703,251.3333282470703],[436.3333282470703,251.3333282470703],[435.3333282470703,251.3333282470703],[434.3333282470703,251.3333282470703],[434.3333282470703,251.3333282470703],[433.3333282470703,251.3333282470703],[432.3333282470703,251.3333282470703],[431.3333282470703,251.3333282470703],[430.3333282470703,251.3333282470703],[430.3333282470703,251.3333282470703],[429.3333282470703,251.3333282470703],[429.3333282470703,252.3333282470703],[428.3333282470703,252.3333282470703],[428.3333282470703,252.3333282470703],[427.3333282470703,253.3333282470703],[426.3333282470703,253.3333282470703],[425.3333282470703,253.3333282470703],[424.3333282470703,253.3333282470703],[425.3333282470703,253.3333282470703],[426.3333282470703,253.3333282470703],[428.3333282470703,253.3333282470703],[430.3333282470703,253.3333282470703],[432.3333282470703,253.3333282470703],[434.3333282470703,253.3333282470703],[436.3333282470703,253.3333282470703],[437.3333282470703,253.3333282470703],[438.3333282470703,253.3333282470703],[439.3333282470703,253.3333282470703],[440.3333282470703,253.3333282470703],[440.3333282470703,253.3333282470703],[440.3333282470703,254.3333282470703],[441.3333282470703,254.3333282470703],[441.3333282470703,254.3333282470703],[442.3333282470703,254.3333282470703],[442.3333282470703,256.3333282470703],[442.3333282470703,258.3333282470703],[442.3333282470703,260.3333282470703],[442.3333282470703,261.3333282470703],[442.3333282470703,262.3333282470703],[442.3333282470703,264.3333282470703],[442.3333282470703,266.3333282470703],[442.3333282470703,266.3333282470703],[442.3333282470703,268.3333282470703],[442.3333282470703,269.3333282470703],[442.3333282470703,270.3333282470703],[441.3333282470703,270.3333282470703],[440.3333282470703,271.3333282470703],[440.3333282470703,272.3333282470703],[439.3333282470703,272.3333282470703],[438.3333282470703,272.3333282470703],[437.3333282470703,272.3333282470703],[436.3333282470703,272.3333282470703],[435.3333282470703,272.3333282470703],[435.3333282470703,273.3333282470703],[434.3333282470703,273.3333282470703]]},{\"color\":\"#f90606\",\"size\":\"22.5\",\"width\":480,\"height\":480,\"stroke\":[[329.3333282470703,464.3333282470703],[329.3333282470703,464.3333282470703],[330.3333282470703,464.3333282470703],[330.3333282470703,465.3333282470703],[330.3333282470703,465.3333282470703],[330.3333282470703,466.3333282470703],[331.3333282470703,466.3333282470703],[331.3333282470703,466.3333282470703],[332.3333282470703,466.3333282470703],[332.3333282470703,467.3333282470703],[332.3333282470703,467.3333282470703],[333.3333282470703,467.3333282470703],[334.3333282470703,467.3333282470703],[334.3333282470703,467.3333282470703],[334.3333282470703,468.3333282470703],[333.3333282470703,468.3333282470703],[332.3333282470703,468.3333282470703],[331.3333282470703,468.3333282470703],[330.3333282470703,468.3333282470703],[328.3333282470703,468.3333282470703],[326.3333282470703,468.3333282470703],[326.3333282470703,468.3333282470703],[325.3333282470703,468.3333282470703],[324.3333282470703,468.3333282470703],[323.3333282470703,468.3333282470703],[322.3333282470703,468.3333282470703],[321.3333282470703,468.3333282470703],[320.3333282470703,468.3333282470703],[320.3333282470703,468.3333282470703],[319.3333282470703,468.3333282470703],[320.3333282470703,468.3333282470703],[321.3333282470703,468.3333282470703],[322.3333282470703,468.3333282470703],[322.3333282470703,467.3333282470703],[323.3333282470703,466.3333282470703],[324.3333282470703,466.3333282470703],[324.3333282470703,466.3333282470703],[325.3333282470703,466.3333282470703],[326.3333282470703,465.3333282470703],[326.3333282470703,465.3333282470703],[327.3333282470703,465.3333282470703],[328.3333282470703,465.3333282470703],[328.3333282470703,465.3333282470703],[329.3333282470703,465.3333282470703],[330.3333282470703,465.3333282470703],[330.3333282470703,464.3333282470703],[331.3333282470703,464.3333282470703],[332.3333282470703,464.3333282470703],[332.3333282470703,464.3333282470703],[334.3333282470703,463.3333282470703],[334.3333282470703,463.3333282470703],[335.3333282470703,463.3333282470703],[336.3333282470703,463.3333282470703],[336.3333282470703,463.3333282470703],[337.3333282470703,463.3333282470703],[338.3333282470703,463.3333282470703],[338.3333282470703,462.3333282470703],[338.3333282470703,462.3333282470703],[339.3333282470703,462.3333282470703],[340.3333282470703,462.3333282470703],[340.3333282470703,462.3333282470703],[341.3333282470703,462.3333282470703],[342.3333282470703,462.3333282470703],[342.3333282470703,462.3333282470703],[343.3333282470703,462.3333282470703],[343.3333282470703,461.3333282470703],[343.3333282470703,460.3333282470703],[343.3333282470703,460.3333282470703],[343.3333282470703,459.3333282470703],[343.3333282470703,458.3333282470703],[343.3333282470703,458.3333282470703],[343.3333282470703,457.3333282470703],[343.3333282470703,456.3333282470703],[343.3333282470703,454.3333282470703],[343.3333282470703,454.3333282470703],[343.3333282470703,453.3333282470703],[343.3333282470703,452.3333282470703],[343.3333282470703,452.3333282470703],[342.3333282470703,452.3333282470703],[342.3333282470703,452.3333282470703],[341.3333282470703,452.3333282470703],[340.3333282470703,451.3333282470703],[340.3333282470703,451.3333282470703],[338.3333282470703,451.3333282470703],[338.3333282470703,451.3333282470703],[336.3333282470703,451.3333282470703],[336.3333282470703,451.3333282470703],[335.3333282470703,451.3333282470703],[334.3333282470703,451.3333282470703],[334.3333282470703,451.3333282470703],[333.3333282470703,451.3333282470703],[332.3333282470703,451.3333282470703],[332.3333282470703,451.3333282470703],[331.3333282470703,451.3333282470703],[330.3333282470703,451.3333282470703],[330.3333282470703,451.3333282470703],[329.3333282470703,451.3333282470703],[330.3333282470703,451.3333282470703],[330.3333282470703,451.3333282470703],[331.3333282470703,451.3333282470703],[332.3333282470703,451.3333282470703],[333.3333282470703,451.3333282470703],[334.3333282470703,450.3333282470703],[336.3333282470703,450.3333282470703],[337.3333282470703,450.3333282470703],[338.3333282470703,450.3333282470703],[338.3333282470703,450.3333282470703],[340.3333282470703,449.3333282470703],[341.3333282470703,448.3333282470703],[342.3333282470703,448.3333282470703],[344.3333282470703,448.3333282470703],[344.3333282470703,447.3333282470703],[345.3333282470703,447.3333282470703],[346.3333282470703,447.3333282470703],[346.3333282470703,447.3333282470703],[347.3333282470703,447.3333282470703],[347.3333282470703,448.3333282470703],[347.3333282470703,448.3333282470703],[347.3333282470703,449.3333282470703],[347.3333282470703,450.3333282470703],[347.3333282470703,450.3333282470703],[347.3333282470703,451.3333282470703],[347.3333282470703,452.3333282470703],[347.3333282470703,452.3333282470703],[347.3333282470703,453.3333282470703],[347.3333282470703,454.3333282470703],[347.3333282470703,454.3333282470703],[348.3333282470703,454.3333282470703]]},{\"color\":\"#f90606\",\"size\":\"22.5\",\"width\":480,\"height\":480,\"stroke\":[[393.3333282470703,470.3333282470703],[392.3333282470703,470.3333282470703],[389.3333282470703,470.3333282470703],[387.3333282470703,468.3333282470703],[384.3333282470703,467.3333282470703],[384.3333282470703,466.3333282470703],[383.3333282470703,466.3333282470703],[382.3333282470703,465.3333282470703],[381.3333282470703,465.3333282470703],[380.3333282470703,465.3333282470703],[380.3333282470703,465.3333282470703],[379.3333282470703,465.3333282470703],[379.3333282470703,464.3333282470703],[379.3333282470703,464.3333282470703],[378.3333282470703,464.3333282470703],[378.3333282470703,463.3333282470703],[378.3333282470703,462.3333282470703],[378.3333282470703,462.3333282470703],[377.3333282470703,462.3333282470703],[377.3333282470703,461.3333282470703],[375.3333282470703,460.3333282470703],[374.3333282470703,459.3333282470703],[373.3333282470703,458.3333282470703],[373.3333282470703,458.3333282470703],[372.3333282470703,458.3333282470703],[372.3333282470703,458.3333282470703],[372.3333282470703,457.3333282470703],[372.3333282470703,456.3333282470703],[372.3333282470703,456.3333282470703],[372.3333282470703,455.3333282470703],[372.3333282470703,454.3333282470703],[372.3333282470703,454.3333282470703],[372.3333282470703,453.3333282470703],[372.3333282470703,452.3333282470703],[372.3333282470703,452.3333282470703],[373.3333282470703,452.3333282470703],[374.3333282470703,452.3333282470703],[375.3333282470703,452.3333282470703],[376.3333282470703,452.3333282470703],[376.3333282470703,452.3333282470703],[377.3333282470703,452.3333282470703],[378.3333282470703,452.3333282470703],[378.3333282470703,452.3333282470703],[379.3333282470703,452.3333282470703],[380.3333282470703,452.3333282470703],[380.3333282470703,452.3333282470703],[382.3333282470703,452.3333282470703],[382.3333282470703,452.3333282470703],[383.3333282470703,452.3333282470703],[384.3333282470703,452.3333282470703],[384.3333282470703,452.3333282470703],[385.3333282470703,452.3333282470703],[386.3333282470703,452.3333282470703],[387.3333282470703,452.3333282470703],[388.3333282470703,452.3333282470703],[388.3333282470703,452.3333282470703],[389.3333282470703,452.3333282470703],[390.3333282470703,452.3333282470703],[391.3333282470703,452.3333282470703],[392.3333282470703,452.3333282470703],[392.3333282470703,453.3333282470703],[392.3333282470703,454.3333282470703],[392.3333282470703,455.3333282470703],[392.3333282470703,456.3333282470703],[392.3333282470703,458.3333282470703],[393.3333282470703,460.3333282470703],[393.3333282470703,460.3333282470703],[394.3333282470703,461.3333282470703],[394.3333282470703,462.3333282470703],[394.3333282470703,462.3333282470703],[394.3333282470703,462.3333282470703],[395.3333282470703,463.3333282470703],[396.3333282470703,464.3333282470703],[396.3333282470703,464.3333282470703],[396.3333282470703,464.3333282470703],[397.3333282470703,464.3333282470703],[397.3333282470703,465.3333282470703],[398.3333282470703,466.3333282470703],[399.3333282470703,466.3333282470703],[399.3333282470703,466.3333282470703],[399.3333282470703,467.3333282470703],[400.3333282470703,467.3333282470703],[400.3333282470703,468.3333282470703],[401.3333282470703,468.3333282470703],[402.3333282470703,468.3333282470703]]},{\"color\":\"#06f9f9\",\"size\":\"22.5\",\"width\":480,\"height\":480,\"stroke\":[[288.3333282470703,242.3333282470703],[289.3333282470703,242.3333282470703],[290.3333282470703,242.3333282470703],[290.3333282470703,242.3333282470703],[291.3333282470703,242.3333282470703],[292.3333282470703,243.3333282470703],[294.3333282470703,244.3333282470703],[296.3333282470703,244.3333282470703],[299.3333282470703,244.3333282470703],[300.3333282470703,244.3333282470703],[302.3333282470703,244.3333282470703]]},{\"color\":\"#06f9f9\",\"size\":\"22.5\",\"width\":480,\"height\":480,\"stroke\":[[424.3333282470703,249.3333282470703],[425.3333282470703,249.3333282470703],[426.3333282470703,249.3333282470703],[426.3333282470703,249.3333282470703],[427.3333282470703,249.3333282470703],[428.3333282470703,249.3333282470703],[428.3333282470703,249.3333282470703],[429.3333282470703,248.3333282470703],[430.3333282470703,248.3333282470703],[430.3333282470703,248.3333282470703],[432.3333282470703,248.3333282470703],[432.3333282470703,248.3333282470703],[433.3333282470703,248.3333282470703],[434.3333282470703,248.3333282470703]]},{\"color\":\"#619e9e\",\"size\":\"22.5\",\"width\":480,\"height\":480,\"stroke\":[[297.3333282470703,181.3333282470703],[298.3333282470703,182.3333282470703],[298.3333282470703,182.3333282470703],[298.3333282470703,183.3333282470703],[299.3333282470703,184.3333282470703],[300.3333282470703,184.3333282470703],[302.3333282470703,186.3333282470703],[302.3333282470703,186.3333282470703],[303.3333282470703,186.3333282470703],[304.3333282470703,187.3333282470703],[304.3333282470703,188.3333282470703],[305.3333282470703,188.3333282470703],[306.3333282470703,190.3333282470703],[306.3333282470703,190.3333282470703],[307.3333282470703,190.3333282470703],[307.3333282470703,190.3333282470703],[308.3333282470703,190.3333282470703],[308.3333282470703,190.3333282470703],[308.3333282470703,191.3333282470703],[306.3333282470703,191.3333282470703],[304.3333282470703,191.3333282470703],[303.3333282470703,191.3333282470703],[300.3333282470703,191.3333282470703],[297.3333282470703,191.3333282470703],[296.3333282470703,192.3333282470703],[294.3333282470703,192.3333282470703],[292.3333282470703,192.3333282470703],[291.3333282470703,192.3333282470703],[290.3333282470703,192.3333282470703],[290.3333282470703,193.3333282470703],[289.3333282470703,193.3333282470703],[288.3333282470703,193.3333282470703],[288.3333282470703,194.3333282470703],[288.3333282470703,195.3333282470703],[289.3333282470703,195.3333282470703],[289.3333282470703,196.3333282470703],[290.3333282470703,196.3333282470703],[290.3333282470703,198.3333282470703],[291.3333282470703,200.3333282470703],[292.3333282470703,200.3333282470703],[294.3333282470703,202.3333282470703],[294.3333282470703,202.3333282470703],[295.3333282470703,204.3333282470703],[296.3333282470703,204.3333282470703],[297.3333282470703,204.3333282470703],[298.3333282470703,204.3333282470703],[298.3333282470703,204.3333282470703],[299.3333282470703,204.3333282470703],[300.3333282470703,204.3333282470703],[301.3333282470703,204.3333282470703],[302.3333282470703,204.3333282470703],[302.3333282470703,204.3333282470703],[304.3333282470703,204.3333282470703],[305.3333282470703,204.3333282470703],[305.3333282470703,206.3333282470703],[305.3333282470703,207.3333282470703],[305.3333282470703,208.3333282470703],[305.3333282470703,209.3333282470703],[305.3333282470703,210.3333282470703],[305.3333282470703,210.3333282470703],[305.3333282470703,211.3333282470703],[305.3333282470703,212.3333282470703],[305.3333282470703,214.3333282470703],[305.3333282470703,215.3333282470703],[303.3333282470703,216.3333282470703],[302.3333282470703,216.3333282470703],[300.3333282470703,217.3333282470703],[300.3333282470703,218.3333282470703],[299.3333282470703,218.3333282470703],[298.3333282470703,218.3333282470703],[298.3333282470703,218.3333282470703],[297.3333282470703,218.3333282470703],[296.3333282470703,218.3333282470703],[295.3333282470703,218.3333282470703],[294.3333282470703,218.3333282470703],[294.3333282470703,218.3333282470703],[293.3333282470703,218.3333282470703],[292.3333282470703,218.3333282470703],[293.3333282470703,218.3333282470703],[294.3333282470703,218.3333282470703],[294.3333282470703,218.3333282470703],[295.3333282470703,218.3333282470703],[296.3333282470703,218.3333282470703],[296.3333282470703,218.3333282470703],[297.3333282470703,218.3333282470703],[298.3333282470703,218.3333282470703],[298.3333282470703,219.3333282470703],[298.3333282470703,219.3333282470703],[299.3333282470703,219.3333282470703],[300.3333282470703,219.3333282470703],[300.3333282470703,219.3333282470703],[301.3333282470703,219.3333282470703],[301.3333282470703,220.3333282470703],[301.3333282470703,220.3333282470703],[302.3333282470703,220.3333282470703],[302.3333282470703,220.3333282470703],[302.3333282470703,221.3333282470703],[302.3333282470703,222.3333282470703],[302.3333282470703,222.3333282470703],[302.3333282470703,223.3333282470703],[302.3333282470703,223.3333282470703],[301.3333282470703,223.3333282470703],[300.3333282470703,223.3333282470703],[300.3333282470703,223.3333282470703],[298.3333282470703,223.3333282470703],[298.3333282470703,223.3333282470703],[297.3333282470703,223.3333282470703],[296.3333282470703,223.3333282470703],[295.3333282470703,223.3333282470703],[294.3333282470703,223.3333282470703],[294.3333282470703,223.3333282470703]]},{\"color\":\"#619e9e\",\"size\":\"22.5\",\"width\":480,\"height\":480,\"stroke\":[[411.3333282470703,186.3333282470703],[412.3333282470703,186.3333282470703],[412.3333282470703,186.3333282470703],[414.3333282470703,187.3333282470703],[414.3333282470703,187.3333282470703],[415.3333282470703,187.3333282470703],[416.3333282470703,187.3333282470703],[416.3333282470703,187.3333282470703],[417.3333282470703,187.3333282470703],[418.3333282470703,187.3333282470703],[418.3333282470703,187.3333282470703],[419.3333282470703,187.3333282470703],[419.3333282470703,188.3333282470703],[420.3333282470703,188.3333282470703],[420.3333282470703,188.3333282470703],[420.3333282470703,188.3333282470703],[421.3333282470703,188.3333282470703],[422.3333282470703,188.3333282470703],[422.3333282470703,189.3333282470703],[422.3333282470703,190.3333282470703],[422.3333282470703,191.3333282470703],[422.3333282470703,192.3333282470703],[422.3333282470703,192.3333282470703],[422.3333282470703,194.3333282470703],[421.3333282470703,195.3333282470703],[420.3333282470703,196.3333282470703],[420.3333282470703,198.3333282470703],[420.3333282470703,198.3333282470703],[418.3333282470703,200.3333282470703],[418.3333282470703,202.3333282470703],[418.3333282470703,203.3333282470703],[416.3333282470703,204.3333282470703],[416.3333282470703,205.3333282470703],[416.3333282470703,206.3333282470703],[414.3333282470703,206.3333282470703],[414.3333282470703,207.3333282470703],[413.3333282470703,207.3333282470703],[412.3333282470703,207.3333282470703],[412.3333282470703,207.3333282470703],[412.3333282470703,207.3333282470703],[413.3333282470703,207.3333282470703],[415.3333282470703,207.3333282470703],[416.3333282470703,207.3333282470703],[417.3333282470703,207.3333282470703],[418.3333282470703,207.3333282470703],[418.3333282470703,207.3333282470703],[419.3333282470703,207.3333282470703],[419.3333282470703,208.3333282470703],[419.3333282470703,209.3333282470703],[419.3333282470703,210.3333282470703],[419.3333282470703,211.3333282470703],[419.3333282470703,212.3333282470703],[420.3333282470703,214.3333282470703],[420.3333282470703,214.3333282470703],[420.3333282470703,215.3333282470703],[420.3333282470703,216.3333282470703],[419.3333282470703,216.3333282470703],[419.3333282470703,217.3333282470703],[418.3333282470703,217.3333282470703],[418.3333282470703,218.3333282470703],[418.3333282470703,218.3333282470703],[418.3333282470703,219.3333282470703],[418.3333282470703,220.3333282470703],[418.3333282470703,220.3333282470703],[419.3333282470703,220.3333282470703],[419.3333282470703,221.3333282470703],[419.3333282470703,222.3333282470703],[419.3333282470703,222.3333282470703],[420.3333282470703,222.3333282470703],[420.3333282470703,223.3333282470703],[420.3333282470703,223.3333282470703],[420.3333282470703,224.3333282470703],[421.3333282470703,224.3333282470703],[422.3333282470703,224.3333282470703],[422.3333282470703,224.3333282470703],[422.3333282470703,224.3333282470703],[423.3333282470703,224.3333282470703],[423.3333282470703,225.3333282470703],[423.3333282470703,226.3333282470703],[423.3333282470703,226.3333282470703],[423.3333282470703,228.3333282470703],[423.3333282470703,228.3333282470703],[423.3333282470703,229.3333282470703],[423.3333282470703,230.3333282470703],[423.3333282470703,230.3333282470703],[423.3333282470703,231.3333282470703],[423.3333282470703,232.3333282470703],[423.3333282470703,232.3333282470703],[423.3333282470703,233.3333282470703],[423.3333282470703,234.3333282470703],[423.3333282470703,234.3333282470703],[424.3333282470703,234.3333282470703],[424.3333282470703,234.3333282470703],[425.3333282470703,234.3333282470703],[426.3333282470703,234.3333282470703],[428.3333282470703,233.3333282470703],[428.3333282470703,233.3333282470703],[429.3333282470703,232.3333282470703],[430.3333282470703,232.3333282470703],[430.3333282470703,232.3333282470703]]},{\"color\":\"#05fafa\",\"size\":\"22.5\",\"width\":480,\"height\":480,\"stroke\":[[431.3333282470703,258.3333282470703],[431.3333282470703,258.3333282470703],[431.3333282470703,257.3333282470703],[431.3333282470703,256.3333282470703],[431.3333282470703,256.3333282470703],[431.3333282470703,255.3333282470703],[430.3333282470703,254.3333282470703],[430.3333282470703,254.3333282470703],[430.3333282470703,253.3333282470703],[430.3333282470703,252.3333282470703],[430.3333282470703,252.3333282470703],[430.3333282470703,252.3333282470703],[429.3333282470703,252.3333282470703],[429.3333282470703,251.3333282470703],[429.3333282470703,250.3333282470703],[428.3333282470703,250.3333282470703],[428.3333282470703,250.3333282470703],[427.3333282470703,250.3333282470703],[426.3333282470703,250.3333282470703],[426.3333282470703,250.3333282470703],[425.3333282470703,250.3333282470703],[425.3333282470703,251.3333282470703],[424.3333282470703,251.3333282470703],[424.3333282470703,251.3333282470703],[424.3333282470703,252.3333282470703],[423.3333282470703,252.3333282470703],[422.3333282470703,252.3333282470703],[422.3333282470703,252.3333282470703],[422.3333282470703,252.3333282470703],[423.3333282470703,251.3333282470703],[424.3333282470703,251.3333282470703],[424.3333282470703,250.3333282470703],[424.3333282470703,250.3333282470703],[425.3333282470703,250.3333282470703],[426.3333282470703,250.3333282470703],[428.3333282470703,249.3333282470703],[428.3333282470703,249.3333282470703],[429.3333282470703,249.3333282470703],[430.3333282470703,248.3333282470703],[430.3333282470703,248.3333282470703],[431.3333282470703,248.3333282470703],[432.3333282470703,248.3333282470703],[432.3333282470703,248.3333282470703],[433.3333282470703,248.3333282470703],[434.3333282470703,248.3333282470703],[435.3333282470703,248.3333282470703],[436.3333282470703,248.3333282470703],[436.3333282470703,248.3333282470703],[437.3333282470703,248.3333282470703],[438.3333282470703,248.3333282470703]]},{\"color\":\"#05fafa\",\"size\":\"22.5\",\"width\":480,\"height\":480,\"stroke\":[[40.33332824707031,260.3333282470703],[40.33332824707031,259.3333282470703],[41.33332824707031,260.3333282470703],[42.33332824707031,260.3333282470703],[44.33332824707031,260.3333282470703],[48.33332824707031,260.3333282470703],[50.33332824707031,261.3333282470703],[52.33332824707031,262.3333282470703],[53.33332824707031,263.3333282470703],[54.33332824707031,264.3333282470703],[55.33332824707031,266.3333282470703],[56.33332824707031,266.3333282470703],[56.33332824707031,268.3333282470703],[56.33332824707031,268.3333282470703],[56.33332824707031,269.3333282470703],[56.33332824707031,270.3333282470703],[56.33332824707031,270.3333282470703],[57.33332824707031,270.3333282470703],[58.33332824707031,270.3333282470703],[57.33332824707031,270.3333282470703],[56.33332824707031,270.3333282470703],[56.33332824707031,270.3333282470703],[55.33332824707031,270.3333282470703],[55.33332824707031,269.3333282470703],[54.33332824707031,268.3333282470703],[54.33332824707031,267.3333282470703],[54.33332824707031,266.3333282470703],[53.33332824707031,265.3333282470703],[52.33332824707031,264.3333282470703],[51.33332824707031,263.3333282470703],[50.33332824707031,262.3333282470703],[50.33332824707031,262.3333282470703],[50.33332824707031,261.3333282470703],[49.33332824707031,260.3333282470703],[48.33332824707031,260.3333282470703],[48.33332824707031,260.3333282470703],[46.33332824707031,259.3333282470703],[45.33332824707031,259.3333282470703],[44.33332824707031,258.3333282470703],[44.33332824707031,258.3333282470703],[43.33332824707031,257.3333282470703],[42.33332824707031,256.3333282470703],[42.33332824707031,256.3333282470703],[41.33332824707031,256.3333282470703],[40.33332824707031,255.3333282470703],[39.33332824707031,254.3333282470703],[38.33332824707031,253.3333282470703],[38.33332824707031,252.3333282470703],[38.33332824707031,251.3333282470703],[38.33332824707031,250.3333282470703],[38.33332824707031,248.3333282470703],[38.33332824707031,248.3333282470703],[38.33332824707031,247.3333282470703],[38.33332824707031,246.3333282470703],[38.33332824707031,246.3333282470703],[39.33332824707031,246.3333282470703],[40.33332824707031,248.3333282470703],[41.33332824707031,248.3333282470703],[42.33332824707031,250.3333282470703],[43.33332824707031,250.3333282470703],[44.33332824707031,252.3333282470703],[44.33332824707031,252.3333282470703],[45.33332824707031,252.3333282470703],[46.33332824707031,253.3333282470703],[46.33332824707031,254.3333282470703],[47.33332824707031,254.3333282470703],[48.33332824707031,254.3333282470703],[48.33332824707031,254.3333282470703],[49.33332824707031,254.3333282470703],[50.33332824707031,254.3333282470703],[51.33332824707031,254.3333282470703],[52.33332824707031,254.3333282470703],[52.33332824707031,254.3333282470703],[53.33332824707031,254.3333282470703],[54.33332824707031,254.3333282470703],[53.33332824707031,254.3333282470703],[52.33332824707031,254.3333282470703],[51.33332824707031,254.3333282470703],[50.33332824707031,253.3333282470703],[50.33332824707031,253.3333282470703],[49.33332824707031,253.3333282470703],[48.33332824707031,253.3333282470703],[48.33332824707031,252.3333282470703],[48.33332824707031,252.3333282470703],[47.33332824707031,252.3333282470703],[46.33332824707031,252.3333282470703],[46.33332824707031,251.3333282470703],[46.33332824707031,250.3333282470703],[46.33332824707031,250.3333282470703],[46.33332824707031,249.3333282470703],[45.33332824707031,249.3333282470703],[45.33332824707031,248.3333282470703],[46.33332824707031,248.3333282470703],[46.33332824707031,248.3333282470703],[48.33332824707031,248.3333282470703],[48.33332824707031,249.3333282470703],[50.33332824707031,250.3333282470703],[50.33332824707031,250.3333282470703],[51.33332824707031,251.3333282470703],[51.33332824707031,252.3333282470703],[52.33332824707031,252.3333282470703],[52.33332824707031,254.3333282470703],[52.33332824707031,256.3333282470703],[52.33332824707031,258.3333282470703],[52.33332824707031,262.3333282470703],[52.33332824707031,264.3333282470703],[51.33332824707031,266.3333282470703],[50.33332824707031,266.3333282470703],[50.33332824707031,268.3333282470703],[49.33332824707031,268.3333282470703],[48.33332824707031,270.3333282470703],[48.33332824707031,270.3333282470703],[47.33332824707031,271.3333282470703],[46.33332824707031,271.3333282470703],[46.33332824707031,272.3333282470703],[45.33332824707031,272.3333282470703],[45.33332824707031,273.3333282470703],[44.33332824707031,273.3333282470703],[44.33332824707031,273.3333282470703],[43.33332824707031,273.3333282470703],[42.33332824707031,273.3333282470703]]},{\"color\":\"#05fafa\",\"size\":\"22.5\",\"width\":480,\"height\":480,\"stroke\":[[196.3333282470703,242.3333282470703],[195.3333282470703,242.3333282470703],[194.3333282470703,242.3333282470703],[193.3333282470703,242.3333282470703],[192.3333282470703,242.3333282470703],[191.3333282470703,243.3333282470703],[189.3333282470703,244.3333282470703],[188.3333282470703,244.3333282470703],[187.3333282470703,245.3333282470703],[186.3333282470703,246.3333282470703],[184.3333282470703,247.3333282470703],[184.3333282470703,248.3333282470703],[182.3333282470703,248.3333282470703],[182.3333282470703,248.3333282470703],[181.3333282470703,248.3333282470703],[181.3333282470703,249.3333282470703],[181.3333282470703,250.3333282470703],[181.3333282470703,250.3333282470703],[181.3333282470703,251.3333282470703],[182.3333282470703,251.3333282470703],[183.3333282470703,251.3333282470703],[184.3333282470703,251.3333282470703],[185.3333282470703,251.3333282470703],[186.3333282470703,251.3333282470703],[186.3333282470703,252.3333282470703],[187.3333282470703,252.3333282470703],[188.3333282470703,252.3333282470703],[188.3333282470703,252.3333282470703],[188.3333282470703,253.3333282470703],[188.3333282470703,254.3333282470703],[188.3333282470703,254.3333282470703],[188.3333282470703,255.3333282470703],[188.3333282470703,256.3333282470703],[188.3333282470703,258.3333282470703],[188.3333282470703,260.3333282470703],[188.3333282470703,262.3333282470703],[188.3333282470703,264.3333282470703],[188.3333282470703,265.3333282470703],[188.3333282470703,266.3333282470703],[188.3333282470703,266.3333282470703],[189.3333282470703,266.3333282470703],[189.3333282470703,267.3333282470703],[190.3333282470703,267.3333282470703],[190.3333282470703,267.3333282470703],[191.3333282470703,267.3333282470703],[192.3333282470703,267.3333282470703],[194.3333282470703,267.3333282470703],[195.3333282470703,267.3333282470703],[196.3333282470703,267.3333282470703],[196.3333282470703,267.3333282470703],[197.3333282470703,267.3333282470703],[197.3333282470703,266.3333282470703],[198.3333282470703,266.3333282470703],[198.3333282470703,264.3333282470703],[198.3333282470703,262.3333282470703],[199.3333282470703,262.3333282470703],[199.3333282470703,260.3333282470703],[199.3333282470703,260.3333282470703],[199.3333282470703,259.3333282470703],[200.3333282470703,259.3333282470703],[200.3333282470703,259.3333282470703],[200.3333282470703,258.3333282470703],[201.3333282470703,258.3333282470703],[202.3333282470703,258.3333282470703],[202.3333282470703,259.3333282470703],[202.3333282470703,261.3333282470703],[202.3333282470703,262.3333282470703],[202.3333282470703,263.3333282470703],[202.3333282470703,265.3333282470703],[202.3333282470703,267.3333282470703],[202.3333282470703,268.3333282470703],[202.3333282470703,269.3333282470703],[202.3333282470703,270.3333282470703],[201.3333282470703,270.3333282470703],[201.3333282470703,272.3333282470703],[201.3333282470703,272.3333282470703],[201.3333282470703,273.3333282470703],[200.3333282470703,274.3333282470703],[200.3333282470703,274.3333282470703],[200.3333282470703,275.3333282470703],[200.3333282470703,276.3333282470703],[200.3333282470703,276.3333282470703],[199.3333282470703,276.3333282470703],[198.3333282470703,276.3333282470703],[198.3333282470703,276.3333282470703]]},{\"color\":\"#ab5454\",\"size\":\"22.5\",\"width\":480,\"height\":480,\"stroke\":[[55.33332824707031,182.3333282470703],[56.33332824707031,182.3333282470703],[56.33332824707031,183.3333282470703],[57.33332824707031,184.3333282470703],[58.33332824707031,185.3333282470703],[59.33332824707031,186.3333282470703],[61.33332824707031,187.3333282470703],[62.33332824707031,188.3333282470703],[62.33332824707031,189.3333282470703],[63.33332824707031,189.3333282470703],[66.33332824707031,191.3333282470703],[67.33332824707031,192.3333282470703],[68.33332824707031,193.3333282470703],[69.33332824707031,194.3333282470703],[70.33332824707031,194.3333282470703],[71.33332824707031,195.3333282470703],[72.33332824707031,196.3333282470703],[72.33332824707031,196.3333282470703],[73.33332824707031,196.3333282470703],[74.33332824707031,196.3333282470703],[73.33332824707031,196.3333282470703],[72.33332824707031,196.3333282470703],[72.33332824707031,196.3333282470703],[71.33332824707031,196.3333282470703],[68.33332824707031,196.3333282470703],[66.33332824707031,196.3333282470703],[64.33332824707031,196.3333282470703],[62.33332824707031,196.3333282470703],[61.33332824707031,196.3333282470703],[60.33332824707031,196.3333282470703],[60.33332824707031,196.3333282470703],[59.33332824707031,196.3333282470703],[58.33332824707031,196.3333282470703],[58.33332824707031,196.3333282470703],[57.33332824707031,196.3333282470703],[56.33332824707031,196.3333282470703],[56.33332824707031,196.3333282470703],[55.33332824707031,196.3333282470703],[54.33332824707031,196.3333282470703],[55.33332824707031,196.3333282470703],[56.33332824707031,197.3333282470703],[58.33332824707031,198.3333282470703],[59.33332824707031,198.3333282470703],[60.33332824707031,200.3333282470703],[60.33332824707031,200.3333282470703],[60.33332824707031,200.3333282470703],[60.33332824707031,201.3333282470703],[60.33332824707031,202.3333282470703],[61.33332824707031,202.3333282470703],[61.33332824707031,202.3333282470703],[62.33332824707031,202.3333282470703],[62.33332824707031,203.3333282470703],[62.33332824707031,204.3333282470703],[62.33332824707031,204.3333282470703],[62.33332824707031,205.3333282470703],[62.33332824707031,206.3333282470703],[63.33332824707031,207.3333282470703],[64.33332824707031,208.3333282470703],[64.33332824707031,209.3333282470703],[64.33332824707031,210.3333282470703],[65.33332824707031,210.3333282470703],[65.33332824707031,211.3333282470703],[65.33332824707031,212.3333282470703],[66.33332824707031,212.3333282470703],[66.33332824707031,213.3333282470703],[66.33332824707031,214.3333282470703],[64.33332824707031,214.3333282470703],[62.33332824707031,214.3333282470703],[61.33332824707031,214.3333282470703],[60.33332824707031,214.3333282470703],[59.33332824707031,214.3333282470703],[58.33332824707031,214.3333282470703],[58.33332824707031,214.3333282470703],[57.33332824707031,214.3333282470703],[56.33332824707031,214.3333282470703],[56.33332824707031,214.3333282470703],[56.33332824707031,215.3333282470703],[56.33332824707031,216.3333282470703],[56.33332824707031,217.3333282470703],[56.33332824707031,218.3333282470703],[56.33332824707031,218.3333282470703],[56.33332824707031,219.3333282470703],[56.33332824707031,220.3333282470703],[56.33332824707031,220.3333282470703],[56.33332824707031,221.3333282470703],[56.33332824707031,222.3333282470703],[55.33332824707031,222.3333282470703],[55.33332824707031,222.3333282470703],[55.33332824707031,223.3333282470703],[55.33332824707031,224.3333282470703],[55.33332824707031,224.3333282470703],[55.33332824707031,225.3333282470703],[54.33332824707031,225.3333282470703],[54.33332824707031,225.3333282470703],[54.33332824707031,226.3333282470703],[53.33332824707031,226.3333282470703],[53.33332824707031,227.3333282470703],[52.33332824707031,228.3333282470703],[52.33332824707031,228.3333282470703],[52.33332824707031,229.3333282470703],[52.33332824707031,229.3333282470703],[52.33332824707031,230.3333282470703],[52.33332824707031,230.3333282470703],[53.33332824707031,230.3333282470703],[54.33332824707031,230.3333282470703],[54.33332824707031,230.3333282470703],[55.33332824707031,230.3333282470703],[55.33332824707031,230.3333282470703],[56.33332824707031,230.3333282470703],[56.33332824707031,231.3333282470703],[56.33332824707031,231.3333282470703],[56.33332824707031,232.3333282470703],[57.33332824707031,232.3333282470703],[58.33332824707031,232.3333282470703]]},{\"color\":\"#ab5454\",\"size\":\"22.5\",\"width\":480,\"height\":480,\"stroke\":[[168.3333282470703,184.3333282470703],[168.3333282470703,184.3333282470703],[169.3333282470703,184.3333282470703],[170.3333282470703,184.3333282470703],[171.3333282470703,184.3333282470703],[172.3333282470703,184.3333282470703],[173.3333282470703,184.3333282470703],[174.3333282470703,184.3333282470703],[176.3333282470703,184.3333282470703],[176.3333282470703,184.3333282470703],[177.3333282470703,184.3333282470703],[178.3333282470703,184.3333282470703],[178.3333282470703,184.3333282470703],[179.3333282470703,184.3333282470703],[179.3333282470703,183.3333282470703],[179.3333282470703,182.3333282470703],[180.3333282470703,182.3333282470703],[180.3333282470703,182.3333282470703],[181.3333282470703,182.3333282470703],[181.3333282470703,181.3333282470703],[182.3333282470703,181.3333282470703],[181.3333282470703,182.3333282470703],[180.3333282470703,183.3333282470703],[180.3333282470703,184.3333282470703],[179.3333282470703,185.3333282470703],[178.3333282470703,186.3333282470703],[177.3333282470703,188.3333282470703],[176.3333282470703,188.3333282470703],[176.3333282470703,188.3333282470703],[175.3333282470703,190.3333282470703],[174.3333282470703,190.3333282470703],[174.3333282470703,191.3333282470703],[173.3333282470703,192.3333282470703],[172.3333282470703,192.3333282470703],[171.3333282470703,192.3333282470703],[170.3333282470703,193.3333282470703],[169.3333282470703,193.3333282470703],[168.3333282470703,194.3333282470703],[168.3333282470703,194.3333282470703],[167.3333282470703,194.3333282470703],[168.3333282470703,194.3333282470703],[168.3333282470703,194.3333282470703],[170.3333282470703,194.3333282470703],[172.3333282470703,194.3333282470703],[173.3333282470703,193.3333282470703],[174.3333282470703,192.3333282470703],[176.3333282470703,192.3333282470703],[176.3333282470703,192.3333282470703],[177.3333282470703,192.3333282470703],[178.3333282470703,192.3333282470703],[178.3333282470703,192.3333282470703],[179.3333282470703,192.3333282470703],[180.3333282470703,192.3333282470703],[180.3333282470703,192.3333282470703],[181.3333282470703,192.3333282470703],[182.3333282470703,192.3333282470703],[182.3333282470703,192.3333282470703],[183.3333282470703,192.3333282470703],[183.3333282470703,193.3333282470703],[183.3333282470703,194.3333282470703],[182.3333282470703,195.3333282470703],[181.3333282470703,196.3333282470703],[180.3333282470703,196.3333282470703],[180.3333282470703,198.3333282470703],[178.3333282470703,198.3333282470703],[178.3333282470703,199.3333282470703],[177.3333282470703,200.3333282470703],[176.3333282470703,200.3333282470703],[176.3333282470703,201.3333282470703],[175.3333282470703,202.3333282470703],[174.3333282470703,203.3333282470703],[174.3333282470703,203.3333282470703],[174.3333282470703,204.3333282470703],[174.3333282470703,205.3333282470703],[173.3333282470703,206.3333282470703],[172.3333282470703,206.3333282470703],[172.3333282470703,206.3333282470703],[172.3333282470703,207.3333282470703],[173.3333282470703,207.3333282470703],[173.3333282470703,206.3333282470703],[176.3333282470703,202.3333282470703],[178.3333282470703,200.3333282470703],[180.3333282470703,198.3333282470703],[182.3333282470703,197.3333282470703],[183.3333282470703,196.3333282470703],[184.3333282470703,196.3333282470703],[186.3333282470703,195.3333282470703],[186.3333282470703,194.3333282470703],[188.3333282470703,194.3333282470703],[188.3333282470703,194.3333282470703],[190.3333282470703,194.3333282470703],[190.3333282470703,194.3333282470703],[192.3333282470703,194.3333282470703],[192.3333282470703,194.3333282470703],[193.3333282470703,195.3333282470703],[193.3333282470703,196.3333282470703],[194.3333282470703,198.3333282470703],[194.3333282470703,201.3333282470703],[192.3333282470703,204.3333282470703],[190.3333282470703,206.3333282470703],[189.3333282470703,206.3333282470703],[189.3333282470703,207.3333282470703],[188.3333282470703,208.3333282470703],[186.3333282470703,208.3333282470703],[185.3333282470703,209.3333282470703],[185.3333282470703,210.3333282470703],[184.3333282470703,210.3333282470703],[182.3333282470703,210.3333282470703],[182.3333282470703,210.3333282470703],[181.3333282470703,211.3333282470703],[180.3333282470703,211.3333282470703],[180.3333282470703,211.3333282470703],[179.3333282470703,211.3333282470703],[178.3333282470703,211.3333282470703],[178.3333282470703,212.3333282470703],[177.3333282470703,212.3333282470703],[176.3333282470703,213.3333282470703],[176.3333282470703,214.3333282470703],[176.3333282470703,214.3333282470703],[175.3333282470703,214.3333282470703],[174.3333282470703,215.3333282470703],[174.3333282470703,216.3333282470703],[174.3333282470703,216.3333282470703],[174.3333282470703,217.3333282470703],[174.3333282470703,218.3333282470703],[174.3333282470703,218.3333282470703],[174.3333282470703,219.3333282470703],[174.3333282470703,220.3333282470703],[174.3333282470703,220.3333282470703],[174.3333282470703,221.3333282470703],[174.3333282470703,222.3333282470703],[174.3333282470703,222.3333282470703],[174.3333282470703,223.3333282470703],[174.3333282470703,224.3333282470703],[174.3333282470703,224.3333282470703],[174.3333282470703,225.3333282470703],[174.3333282470703,226.3333282470703],[174.3333282470703,226.3333282470703],[174.3333282470703,227.3333282470703],[174.3333282470703,228.3333282470703],[174.3333282470703,228.3333282470703],[174.3333282470703,229.3333282470703],[175.3333282470703,229.3333282470703],[175.3333282470703,228.3333282470703],[176.3333282470703,228.3333282470703],[176.3333282470703,227.3333282470703],[176.3333282470703,227.3333282470703],[177.3333282470703,226.3333282470703],[177.3333282470703,226.3333282470703],[178.3333282470703,226.3333282470703],[179.3333282470703,225.3333282470703],[180.3333282470703,224.3333282470703],[181.3333282470703,224.3333282470703],[182.3333282470703,224.3333282470703],[184.3333282470703,224.3333282470703],[185.3333282470703,224.3333282470703],[186.3333282470703,224.3333282470703],[187.3333282470703,224.3333282470703],[188.3333282470703,224.3333282470703],[189.3333282470703,224.3333282470703],[190.3333282470703,224.3333282470703],[191.3333282470703,224.3333282470703],[192.3333282470703,224.3333282470703],[193.3333282470703,224.3333282470703],[194.3333282470703,224.3333282470703],[194.3333282470703,224.3333282470703],[195.3333282470703,224.3333282470703],[196.3333282470703,224.3333282470703],[196.3333282470703,224.3333282470703]]},{\"color\":\"#c43b3b\",\"size\":\"22.5\",\"width\":480,\"height\":480,\"stroke\":[[118.33332824707031,74.33332824707031],[117.33332824707031,74.33332824707031],[116.33332824707031,74.33332824707031],[114.33332824707031,72.33332824707031],[111.33332824707031,69.33332824707031],[109.33332824707031,68.33332824707031],[107.33332824707031,66.33332824707031],[106.33332824707031,64.33332824707031],[103.33332824707031,62.33332824707031],[102.33332824707031,60.33332824707031],[101.33332824707031,59.33332824707031],[100.33332824707031,58.33332824707031],[99.33332824707031,56.33332824707031],[99.33332824707031,56.33332824707031],[99.33332824707031,55.33332824707031],[99.33332824707031,53.33332824707031],[100.33332824707031,52.33332824707031],[103.33332824707031,50.33332824707031],[106.33332824707031,50.33332824707031],[109.33332824707031,50.33332824707031],[111.33332824707031,50.33332824707031],[113.33332824707031,50.33332824707031],[115.33332824707031,50.33332824707031],[118.33332824707031,51.33332824707031],[118.33332824707031,52.33332824707031],[120.33332824707031,53.33332824707031],[122.33332824707031,56.33332824707031],[123.33332824707031,58.33332824707031],[125.33332824707031,61.33332824707031],[126.33332824707031,62.33332824707031],[126.33332824707031,63.33332824707031],[126.33332824707031,64.33332824707031],[126.33332824707031,64.33332824707031],[126.33332824707031,65.33332824707031],[125.33332824707031,66.33332824707031],[124.33332824707031,66.33332824707031],[123.33332824707031,66.33332824707031],[122.33332824707031,66.33332824707031],[122.33332824707031,66.33332824707031],[121.33332824707031,66.33332824707031],[120.33332824707031,66.33332824707031],[120.33332824707031,66.33332824707031],[120.33332824707031,64.33332824707031],[120.33332824707031,64.33332824707031],[120.33332824707031,62.33332824707031],[120.33332824707031,56.33332824707031],[123.33332824707031,52.33332824707031],[124.33332824707031,48.33332824707031],[126.33332824707031,46.33332824707031],[128.3333282470703,44.33332824707031],[129.3333282470703,43.33332824707031],[130.3333282470703,43.33332824707031],[130.3333282470703,42.33332824707031],[132.3333282470703,42.33332824707031],[133.3333282470703,42.33332824707031],[133.3333282470703,41.33332824707031],[134.3333282470703,40.33332824707031],[135.3333282470703,39.33332824707031],[136.3333282470703,38.33332824707031],[136.3333282470703,38.33332824707031],[137.3333282470703,35.33332824707031],[138.3333282470703,32.33332824707031],[138.3333282470703,30.333328247070312],[138.3333282470703,28.333328247070312],[138.3333282470703,26.333328247070312],[138.3333282470703,24.333328247070312],[137.3333282470703,23.333328247070312],[136.3333282470703,22.333328247070312],[134.3333282470703,20.333328247070312],[129.3333282470703,18.333328247070312],[126.33332824707031,17.333328247070312],[123.33332824707031,16.333328247070312],[119.33332824707031,16.333328247070312],[114.33332824707031,15.333328247070312],[110.33332824707031,15.333328247070312],[106.33332824707031,15.333328247070312],[104.33332824707031,15.333328247070312],[100.33332824707031,15.333328247070312],[98.33332824707031,16.333328247070312],[98.33332824707031,17.333328247070312],[97.33332824707031,18.333328247070312],[96.33332824707031,20.333328247070312],[95.33332824707031,20.333328247070312],[94.33332824707031,21.333328247070312],[94.33332824707031,22.333328247070312],[94.33332824707031,23.333328247070312],[94.33332824707031,24.333328247070312],[94.33332824707031,26.333328247070312],[94.33332824707031,28.333328247070312],[96.33332824707031,29.333328247070312],[98.33332824707031,31.333328247070312],[102.33332824707031,34.33332824707031],[104.33332824707031,34.33332824707031],[109.33332824707031,35.33332824707031],[111.33332824707031,35.33332824707031],[114.33332824707031,35.33332824707031],[116.33332824707031,35.33332824707031],[120.33332824707031,34.33332824707031],[124.33332824707031,34.33332824707031],[126.33332824707031,33.33332824707031],[129.3333282470703,32.33332824707031],[132.3333282470703,32.33332824707031],[134.3333282470703,30.333328247070312],[134.3333282470703,30.333328247070312],[136.3333282470703,29.333328247070312],[138.3333282470703,28.333328247070312],[138.3333282470703,28.333328247070312],[139.3333282470703,28.333328247070312],[140.3333282470703,28.333328247070312],[140.3333282470703,28.333328247070312],[140.3333282470703,29.333328247070312],[140.3333282470703,30.333328247070312],[140.3333282470703,33.33332824707031],[140.3333282470703,35.33332824707031],[140.3333282470703,37.33332824707031],[140.3333282470703,39.33332824707031],[140.3333282470703,40.33332824707031],[140.3333282470703,41.33332824707031],[140.3333282470703,42.33332824707031],[139.3333282470703,42.33332824707031],[138.3333282470703,43.33332824707031],[138.3333282470703,44.33332824707031],[136.3333282470703,45.33332824707031],[135.3333282470703,47.33332824707031],[134.3333282470703,48.33332824707031],[132.3333282470703,50.33332824707031],[132.3333282470703,51.33332824707031],[131.3333282470703,52.33332824707031],[131.3333282470703,52.33332824707031],[131.3333282470703,53.33332824707031],[130.3333282470703,53.33332824707031],[130.3333282470703,54.33332824707031],[130.3333282470703,54.33332824707031],[129.3333282470703,54.33332824707031],[130.3333282470703,54.33332824707031],[130.3333282470703,55.33332824707031],[130.3333282470703,55.33332824707031],[130.3333282470703,56.33332824707031],[131.3333282470703,56.33332824707031],[131.3333282470703,56.33332824707031],[132.3333282470703,57.33332824707031],[132.3333282470703,58.33332824707031],[133.3333282470703,58.33332824707031],[134.3333282470703,58.33332824707031],[134.3333282470703,59.33332824707031]]},{\"color\":\"#c43b3b\",\"size\":\"22.5\",\"width\":480,\"height\":480,\"stroke\":[[106.33332824707031,70.33332824707031],[107.33332824707031,70.33332824707031],[109.33332824707031,70.33332824707031],[111.33332824707031,70.33332824707031],[113.33332824707031,70.33332824707031],[115.33332824707031,70.33332824707031],[117.33332824707031,70.33332824707031],[118.33332824707031,70.33332824707031],[118.33332824707031,70.33332824707031],[120.33332824707031,70.33332824707031],[122.33332824707031,70.33332824707031],[123.33332824707031,70.33332824707031],[124.33332824707031,70.33332824707031],[125.33332824707031,70.33332824707031],[126.33332824707031,70.33332824707031],[128.3333282470703,70.33332824707031],[128.3333282470703,70.33332824707031],[129.3333282470703,70.33332824707031],[130.3333282470703,70.33332824707031],[132.3333282470703,70.33332824707031],[132.3333282470703,70.33332824707031],[134.3333282470703,70.33332824707031],[136.3333282470703,70.33332824707031],[138.3333282470703,70.33332824707031],[139.3333282470703,70.33332824707031],[140.3333282470703,70.33332824707031],[142.3333282470703,70.33332824707031],[143.3333282470703,70.33332824707031],[144.3333282470703,70.33332824707031],[144.3333282470703,70.33332824707031],[144.3333282470703,70.33332824707031],[144.3333282470703,71.33332824707031],[144.3333282470703,72.33332824707031],[142.3333282470703,72.33332824707031],[140.3333282470703,72.33332824707031],[140.3333282470703,72.33332824707031],[138.3333282470703,72.33332824707031],[136.3333282470703,72.33332824707031],[136.3333282470703,72.33332824707031],[134.3333282470703,72.33332824707031],[131.3333282470703,72.33332824707031],[128.3333282470703,71.33332824707031],[126.33332824707031,71.33332824707031],[124.33332824707031,71.33332824707031],[122.33332824707031,71.33332824707031],[120.33332824707031,72.33332824707031],[118.33332824707031,72.33332824707031],[117.33332824707031,72.33332824707031],[114.33332824707031,72.33332824707031],[113.33332824707031,72.33332824707031],[112.33332824707031,72.33332824707031],[111.33332824707031,72.33332824707031],[110.33332824707031,72.33332824707031],[107.33332824707031,72.33332824707031],[106.33332824707031,72.33332824707031],[104.33332824707031,72.33332824707031],[104.33332824707031,72.33332824707031],[102.33332824707031,72.33332824707031],[102.33332824707031,72.33332824707031],[101.33332824707031,72.33332824707031],[100.33332824707031,72.33332824707031],[98.33332824707031,72.33332824707031],[98.33332824707031,72.33332824707031]]},{\"color\":\"#c43b3b\",\"size\":\"22.5\",\"width\":480,\"height\":480,\"stroke\":[[336.3333282470703,64.33332824707031],[337.3333282470703,64.33332824707031],[340.3333282470703,64.33332824707031],[346.3333282470703,64.33332824707031],[349.3333282470703,64.33332824707031],[356.3333282470703,62.33332824707031],[360.3333282470703,60.33332824707031],[364.3333282470703,60.33332824707031],[366.3333282470703,60.33332824707031],[367.3333282470703,60.33332824707031],[369.3333282470703,60.33332824707031],[370.3333282470703,60.33332824707031],[372.3333282470703,60.33332824707031],[373.3333282470703,60.33332824707031],[374.3333282470703,60.33332824707031],[374.3333282470703,60.33332824707031],[375.3333282470703,60.33332824707031],[376.3333282470703,60.33332824707031],[376.3333282470703,60.33332824707031],[377.3333282470703,60.33332824707031],[378.3333282470703,60.33332824707031],[378.3333282470703,60.33332824707031],[378.3333282470703,61.33332824707031],[378.3333282470703,63.33332824707031],[378.3333282470703,66.33332824707031],[378.3333282470703,66.33332824707031],[378.3333282470703,66.33332824707031],[377.3333282470703,68.33332824707031],[374.3333282470703,68.33332824707031],[373.3333282470703,69.33332824707031],[372.3333282470703,69.33332824707031],[370.3333282470703,70.33332824707031],[368.3333282470703,70.33332824707031],[367.3333282470703,70.33332824707031],[365.3333282470703,70.33332824707031],[364.3333282470703,70.33332824707031],[362.3333282470703,70.33332824707031],[360.3333282470703,70.33332824707031],[358.3333282470703,71.33332824707031],[355.3333282470703,71.33332824707031],[352.3333282470703,72.33332824707031],[349.3333282470703,72.33332824707031],[347.3333282470703,73.33332824707031],[345.3333282470703,73.33332824707031],[344.3333282470703,73.33332824707031],[343.3333282470703,73.33332824707031],[342.3333282470703,73.33332824707031],[342.3333282470703,73.33332824707031],[341.3333282470703,73.33332824707031],[342.3333282470703,73.33332824707031],[343.3333282470703,73.33332824707031],[346.3333282470703,72.33332824707031],[352.3333282470703,72.33332824707031],[357.3333282470703,71.33332824707031],[361.3333282470703,71.33332824707031],[366.3333282470703,71.33332824707031],[368.3333282470703,71.33332824707031],[369.3333282470703,71.33332824707031],[370.3333282470703,71.33332824707031],[372.3333282470703,71.33332824707031],[373.3333282470703,71.33332824707031],[374.3333282470703,71.33332824707031],[376.3333282470703,71.33332824707031],[377.3333282470703,71.33332824707031],[378.3333282470703,71.33332824707031],[379.3333282470703,71.33332824707031],[380.3333282470703,71.33332824707031],[380.3333282470703,71.33332824707031],[380.3333282470703,70.33332824707031],[378.3333282470703,66.33332824707031],[375.3333282470703,63.33332824707031],[371.3333282470703,60.33332824707031],[365.3333282470703,58.33332824707031],[354.3333282470703,53.33332824707031],[347.3333282470703,52.33332824707031],[342.3333282470703,52.33332824707031],[334.3333282470703,50.33332824707031],[331.3333282470703,50.33332824707031],[329.3333282470703,50.33332824707031],[328.3333282470703,50.33332824707031],[328.3333282470703,49.33332824707031],[328.3333282470703,48.33332824707031],[331.3333282470703,48.33332824707031],[337.3333282470703,48.33332824707031],[346.3333282470703,47.33332824707031],[352.3333282470703,47.33332824707031],[360.3333282470703,47.33332824707031],[365.3333282470703,47.33332824707031],[369.3333282470703,47.33332824707031],[374.3333282470703,47.33332824707031],[380.3333282470703,47.33332824707031],[384.3333282470703,47.33332824707031],[386.3333282470703,47.33332824707031],[388.3333282470703,47.33332824707031],[390.3333282470703,47.33332824707031],[392.3333282470703,46.33332824707031],[392.3333282470703,46.33332824707031],[392.3333282470703,46.33332824707031],[388.3333282470703,46.33332824707031],[384.3333282470703,46.33332824707031],[380.3333282470703,46.33332824707031],[376.3333282470703,46.33332824707031],[371.3333282470703,46.33332824707031],[364.3333282470703,45.33332824707031],[358.3333282470703,42.33332824707031],[353.3333282470703,40.33332824707031],[346.3333282470703,36.33332824707031],[344.3333282470703,34.33332824707031],[341.3333282470703,33.33332824707031],[340.3333282470703,32.33332824707031],[338.3333282470703,31.333328247070312],[338.3333282470703,30.333328247070312],[338.3333282470703,30.333328247070312],[338.3333282470703,29.333328247070312],[341.3333282470703,28.333328247070312],[348.3333282470703,28.333328247070312],[354.3333282470703,28.333328247070312],[360.3333282470703,28.333328247070312],[366.3333282470703,28.333328247070312],[376.3333282470703,28.333328247070312],[380.3333282470703,27.333328247070312],[384.3333282470703,27.333328247070312],[386.3333282470703,26.333328247070312],[388.3333282470703,26.333328247070312],[389.3333282470703,26.333328247070312],[388.3333282470703,26.333328247070312],[386.3333282470703,26.333328247070312],[383.3333282470703,26.333328247070312],[374.3333282470703,26.333328247070312],[370.3333282470703,25.333328247070312],[365.3333282470703,24.333328247070312],[360.3333282470703,21.333328247070312],[358.3333282470703,18.333328247070312],[354.3333282470703,16.333328247070312],[352.3333282470703,14.333328247070312],[350.3333282470703,13.333328247070312],[349.3333282470703,12.333328247070312],[348.3333282470703,12.333328247070312],[350.3333282470703,12.333328247070312],[353.3333282470703,12.333328247070312],[356.3333282470703,13.333328247070312],[360.3333282470703,14.333328247070312],[364.3333282470703,15.333328247070312],[366.3333282470703,16.333328247070312],[369.3333282470703,17.333328247070312],[371.3333282470703,18.333328247070312],[373.3333282470703,18.333328247070312],[374.3333282470703,18.333328247070312],[375.3333282470703,19.333328247070312],[376.3333282470703,20.333328247070312],[376.3333282470703,20.333328247070312],[376.3333282470703,22.333328247070312],[376.3333282470703,25.333328247070312],[376.3333282470703,28.333328247070312],[374.3333282470703,30.333328247070312],[374.3333282470703,31.333328247070312],[372.3333282470703,32.33332824707031],[370.3333282470703,33.33332824707031],[368.3333282470703,34.33332824707031],[367.3333282470703,34.33332824707031],[366.3333282470703,34.33332824707031],[365.3333282470703,34.33332824707031],[365.3333282470703,35.33332824707031],[365.3333282470703,36.33332824707031],[365.3333282470703,36.33332824707031],[365.3333282470703,37.33332824707031]]},{\"color\":\"#e71818\",\"size\":\"22.5\",\"width\":480,\"height\":480,\"stroke\":[[80.33332824707031,250.3333282470703],[81.33332824707031,250.3333282470703],[84.33332824707031,250.3333282470703],[93.33332824707031,251.3333282470703],[101.33332824707031,252.3333282470703],[110.33332824707031,252.3333282470703],[115.33332824707031,252.3333282470703],[122.33332824707031,252.3333282470703],[124.33332824707031,252.3333282470703],[125.33332824707031,252.3333282470703],[126.33332824707031,252.3333282470703],[128.3333282470703,252.3333282470703],[128.3333282470703,252.3333282470703],[129.3333282470703,252.3333282470703],[130.3333282470703,252.3333282470703],[131.3333282470703,252.3333282470703],[132.3333282470703,252.3333282470703],[132.3333282470703,253.3333282470703],[133.3333282470703,253.3333282470703],[135.3333282470703,254.3333282470703],[136.3333282470703,254.3333282470703],[137.3333282470703,255.3333282470703],[138.3333282470703,255.3333282470703],[140.3333282470703,256.3333282470703],[142.3333282470703,256.3333282470703],[144.3333282470703,256.3333282470703],[144.3333282470703,256.3333282470703],[147.3333282470703,256.3333282470703],[149.3333282470703,257.3333282470703],[150.3333282470703,258.3333282470703],[152.3333282470703,258.3333282470703],[154.3333282470703,259.3333282470703],[155.3333282470703,259.3333282470703],[156.3333282470703,259.3333282470703],[157.3333282470703,259.3333282470703],[158.3333282470703,259.3333282470703],[158.3333282470703,259.3333282470703],[159.3333282470703,259.3333282470703],[160.3333282470703,260.3333282470703],[160.3333282470703,260.3333282470703],[161.3333282470703,262.3333282470703],[161.3333282470703,263.3333282470703],[162.3333282470703,264.3333282470703],[162.3333282470703,265.3333282470703],[162.3333282470703,266.3333282470703],[162.3333282470703,267.3333282470703],[162.3333282470703,268.3333282470703],[162.3333282470703,270.3333282470703],[162.3333282470703,271.3333282470703],[162.3333282470703,272.3333282470703],[161.3333282470703,273.3333282470703],[161.3333282470703,274.3333282470703],[161.3333282470703,275.3333282470703],[160.3333282470703,276.3333282470703],[158.3333282470703,276.3333282470703],[157.3333282470703,278.3333282470703],[155.3333282470703,278.3333282470703],[153.3333282470703,279.3333282470703],[152.3333282470703,280.3333282470703],[150.3333282470703,280.3333282470703],[148.3333282470703,280.3333282470703],[143.3333282470703,281.3333282470703],[138.3333282470703,282.3333282470703],[133.3333282470703,283.3333282470703],[128.3333282470703,284.3333282470703],[123.33332824707031,284.3333282470703],[120.33332824707031,284.3333282470703],[117.33332824707031,284.3333282470703],[114.33332824707031,284.3333282470703],[112.33332824707031,284.3333282470703],[108.33332824707031,284.3333282470703],[106.33332824707031,284.3333282470703],[103.33332824707031,284.3333282470703],[100.33332824707031,284.3333282470703],[96.33332824707031,284.3333282470703],[93.33332824707031,284.3333282470703],[92.33332824707031,284.3333282470703],[90.33332824707031,284.3333282470703],[88.33332824707031,285.3333282470703],[87.33332824707031,285.3333282470703],[86.33332824707031,285.3333282470703],[84.33332824707031,286.3333282470703],[83.33332824707031,286.3333282470703],[82.33332824707031,286.3333282470703],[81.33332824707031,286.3333282470703],[80.33332824707031,286.3333282470703],[80.33332824707031,286.3333282470703],[79.33332824707031,286.3333282470703],[79.33332824707031,286.3333282470703],[79.33332824707031,285.3333282470703],[79.33332824707031,284.3333282470703],[79.33332824707031,283.3333282470703],[78.33332824707031,282.3333282470703],[78.33332824707031,281.3333282470703],[78.33332824707031,280.3333282470703],[78.33332824707031,278.3333282470703],[78.33332824707031,278.3333282470703],[78.33332824707031,277.3333282470703],[78.33332824707031,276.3333282470703],[78.33332824707031,275.3333282470703],[78.33332824707031,275.3333282470703],[77.33332824707031,274.3333282470703],[77.33332824707031,274.3333282470703],[76.33332824707031,274.3333282470703],[76.33332824707031,273.3333282470703],[76.33332824707031,272.3333282470703],[76.33332824707031,272.3333282470703],[75.33332824707031,271.3333282470703],[75.33332824707031,270.3333282470703],[75.33332824707031,270.3333282470703],[75.33332824707031,268.3333282470703],[75.33332824707031,266.3333282470703],[75.33332824707031,265.3333282470703],[75.33332824707031,264.3333282470703],[75.33332824707031,264.3333282470703],[75.33332824707031,263.3333282470703],[75.33332824707031,262.3333282470703],[75.33332824707031,262.3333282470703],[75.33332824707031,261.3333282470703],[76.33332824707031,261.3333282470703],[77.33332824707031,261.3333282470703],[80.33332824707031,261.3333282470703],[81.33332824707031,261.3333282470703],[84.33332824707031,261.3333282470703],[86.33332824707031,261.3333282470703],[89.33332824707031,261.3333282470703],[93.33332824707031,261.3333282470703],[96.33332824707031,261.3333282470703],[99.33332824707031,261.3333282470703],[102.33332824707031,261.3333282470703],[105.33332824707031,261.3333282470703],[108.33332824707031,261.3333282470703],[108.33332824707031,261.3333282470703],[110.33332824707031,261.3333282470703],[112.33332824707031,261.3333282470703],[114.33332824707031,261.3333282470703],[116.33332824707031,261.3333282470703],[117.33332824707031,261.3333282470703],[118.33332824707031,261.3333282470703],[120.33332824707031,261.3333282470703],[122.33332824707031,261.3333282470703],[123.33332824707031,261.3333282470703],[125.33332824707031,261.3333282470703],[127.33332824707031,261.3333282470703],[128.3333282470703,261.3333282470703],[130.3333282470703,261.3333282470703],[131.3333282470703,261.3333282470703],[133.3333282470703,263.3333282470703],[134.3333282470703,264.3333282470703],[136.3333282470703,264.3333282470703],[136.3333282470703,266.3333282470703],[137.3333282470703,266.3333282470703],[138.3333282470703,267.3333282470703],[139.3333282470703,267.3333282470703],[140.3333282470703,266.3333282470703],[140.3333282470703,266.3333282470703],[140.3333282470703,265.3333282470703],[141.3333282470703,264.3333282470703],[142.3333282470703,264.3333282470703],[142.3333282470703,264.3333282470703],[143.3333282470703,263.3333282470703],[142.3333282470703,263.3333282470703],[142.3333282470703,263.3333282470703],[136.3333282470703,263.3333282470703],[133.3333282470703,264.3333282470703],[130.3333282470703,264.3333282470703],[126.33332824707031,264.3333282470703],[123.33332824707031,264.3333282470703],[120.33332824707031,264.3333282470703],[114.33332824707031,264.3333282470703],[111.33332824707031,264.3333282470703],[106.33332824707031,264.3333282470703],[103.33332824707031,264.3333282470703],[101.33332824707031,264.3333282470703],[100.33332824707031,264.3333282470703],[99.33332824707031,264.3333282470703],[98.33332824707031,264.3333282470703],[96.33332824707031,264.3333282470703],[96.33332824707031,264.3333282470703],[95.33332824707031,264.3333282470703],[94.33332824707031,264.3333282470703],[94.33332824707031,265.3333282470703],[93.33332824707031,266.3333282470703],[92.33332824707031,266.3333282470703],[92.33332824707031,266.3333282470703],[91.33332824707031,266.3333282470703],[90.33332824707031,266.3333282470703],[90.33332824707031,266.3333282470703],[88.33332824707031,266.3333282470703],[88.33332824707031,266.3333282470703],[87.33332824707031,266.3333282470703],[84.33332824707031,265.3333282470703],[83.33332824707031,263.3333282470703],[82.33332824707031,261.3333282470703],[80.33332824707031,258.3333282470703],[79.33332824707031,257.3333282470703],[79.33332824707031,255.3333282470703],[78.33332824707031,254.3333282470703],[78.33332824707031,254.3333282470703],[78.33332824707031,253.3333282470703],[78.33332824707031,252.3333282470703],[78.33332824707031,252.3333282470703],[78.33332824707031,251.3333282470703],[78.33332824707031,251.3333282470703],[80.33332824707031,250.3333282470703],[81.33332824707031,250.3333282470703],[84.33332824707031,250.3333282470703],[85.33332824707031,249.3333282470703],[88.33332824707031,248.3333282470703],[90.33332824707031,248.3333282470703],[92.33332824707031,248.3333282470703],[94.33332824707031,247.3333282470703],[96.33332824707031,246.3333282470703],[96.33332824707031,246.3333282470703],[99.33332824707031,246.3333282470703],[101.33332824707031,245.3333282470703],[102.33332824707031,244.3333282470703],[104.33332824707031,244.3333282470703],[107.33332824707031,244.3333282470703],[108.33332824707031,243.3333282470703],[110.33332824707031,243.3333282470703],[112.33332824707031,242.3333282470703],[112.33332824707031,242.3333282470703],[114.33332824707031,242.3333282470703],[116.33332824707031,242.3333282470703],[116.33332824707031,241.3333282470703],[120.33332824707031,240.3333282470703],[122.33332824707031,240.3333282470703],[124.33332824707031,240.3333282470703],[125.33332824707031,239.3333282470703],[128.3333282470703,238.3333282470703],[129.3333282470703,238.3333282470703],[130.3333282470703,238.3333282470703],[132.3333282470703,238.3333282470703],[134.3333282470703,238.3333282470703],[136.3333282470703,238.3333282470703],[138.3333282470703,238.3333282470703],[139.3333282470703,238.3333282470703],[141.3333282470703,238.3333282470703],[142.3333282470703,238.3333282470703],[142.3333282470703,238.3333282470703],[144.3333282470703,238.3333282470703],[146.3333282470703,239.3333282470703],[147.3333282470703,240.3333282470703],[149.3333282470703,240.3333282470703],[150.3333282470703,241.3333282470703],[151.3333282470703,241.3333282470703],[153.3333282470703,241.3333282470703],[154.3333282470703,241.3333282470703],[154.3333282470703,241.3333282470703],[155.3333282470703,241.3333282470703],[156.3333282470703,242.3333282470703],[157.3333282470703,242.3333282470703],[158.3333282470703,242.3333282470703],[159.3333282470703,243.3333282470703],[160.3333282470703,243.3333282470703],[160.3333282470703,244.3333282470703],[161.3333282470703,244.3333282470703],[162.3333282470703,244.3333282470703],[162.3333282470703,244.3333282470703],[162.3333282470703,245.3333282470703],[162.3333282470703,246.3333282470703]]},{\"color\":\"#e71818\",\"size\":\"22.5\",\"width\":480,\"height\":480,\"stroke\":[[317.3333282470703,234.3333282470703],[318.3333282470703,234.3333282470703],[322.3333282470703,234.3333282470703],[325.3333282470703,234.3333282470703],[328.3333282470703,234.3333282470703],[331.3333282470703,235.3333282470703],[334.3333282470703,236.3333282470703],[336.3333282470703,236.3333282470703],[338.3333282470703,236.3333282470703],[338.3333282470703,236.3333282470703],[340.3333282470703,236.3333282470703],[342.3333282470703,236.3333282470703],[343.3333282470703,236.3333282470703],[345.3333282470703,237.3333282470703],[348.3333282470703,238.3333282470703],[352.3333282470703,238.3333282470703],[355.3333282470703,239.3333282470703],[358.3333282470703,240.3333282470703],[362.3333282470703,240.3333282470703],[364.3333282470703,241.3333282470703],[367.3333282470703,242.3333282470703],[370.3333282470703,242.3333282470703],[375.3333282470703,242.3333282470703],[377.3333282470703,242.3333282470703],[380.3333282470703,242.3333282470703],[383.3333282470703,242.3333282470703],[388.3333282470703,242.3333282470703],[394.3333282470703,242.3333282470703],[397.3333282470703,242.3333282470703],[400.3333282470703,242.3333282470703],[404.3333282470703,242.3333282470703],[404.3333282470703,242.3333282470703],[406.3333282470703,242.3333282470703],[406.3333282470703,242.3333282470703],[407.3333282470703,242.3333282470703],[407.3333282470703,241.3333282470703],[408.3333282470703,241.3333282470703],[408.3333282470703,241.3333282470703],[408.3333282470703,242.3333282470703],[408.3333282470703,242.3333282470703],[407.3333282470703,242.3333282470703],[406.3333282470703,243.3333282470703],[405.3333282470703,244.3333282470703],[402.3333282470703,245.3333282470703],[400.3333282470703,246.3333282470703],[396.3333282470703,246.3333282470703],[392.3333282470703,248.3333282470703],[384.3333282470703,250.3333282470703],[379.3333282470703,252.3333282470703],[373.3333282470703,253.3333282470703],[367.3333282470703,254.3333282470703],[360.3333282470703,254.3333282470703],[356.3333282470703,254.3333282470703],[350.3333282470703,254.3333282470703],[346.3333282470703,254.3333282470703],[340.3333282470703,254.3333282470703],[336.3333282470703,254.3333282470703],[333.3333282470703,254.3333282470703],[330.3333282470703,254.3333282470703],[326.3333282470703,254.3333282470703],[324.3333282470703,254.3333282470703],[320.3333282470703,254.3333282470703],[317.3333282470703,254.3333282470703],[314.3333282470703,254.3333282470703],[312.3333282470703,254.3333282470703],[312.3333282470703,254.3333282470703],[311.3333282470703,254.3333282470703],[310.3333282470703,254.3333282470703],[310.3333282470703,254.3333282470703],[311.3333282470703,254.3333282470703],[313.3333282470703,254.3333282470703],[316.3333282470703,254.3333282470703],[319.3333282470703,255.3333282470703],[322.3333282470703,256.3333282470703],[323.3333282470703,256.3333282470703],[326.3333282470703,258.3333282470703],[327.3333282470703,259.3333282470703],[328.3333282470703,260.3333282470703],[329.3333282470703,260.3333282470703],[330.3333282470703,260.3333282470703],[330.3333282470703,260.3333282470703],[331.3333282470703,260.3333282470703],[332.3333282470703,260.3333282470703],[335.3333282470703,260.3333282470703],[338.3333282470703,260.3333282470703],[340.3333282470703,260.3333282470703],[342.3333282470703,260.3333282470703],[344.3333282470703,260.3333282470703],[346.3333282470703,260.3333282470703],[348.3333282470703,260.3333282470703],[351.3333282470703,260.3333282470703],[357.3333282470703,260.3333282470703],[360.3333282470703,260.3333282470703],[363.3333282470703,260.3333282470703],[364.3333282470703,260.3333282470703],[365.3333282470703,260.3333282470703],[366.3333282470703,260.3333282470703],[367.3333282470703,260.3333282470703],[368.3333282470703,260.3333282470703],[369.3333282470703,260.3333282470703],[370.3333282470703,260.3333282470703],[370.3333282470703,260.3333282470703],[371.3333282470703,260.3333282470703],[372.3333282470703,260.3333282470703],[374.3333282470703,260.3333282470703],[375.3333282470703,260.3333282470703],[378.3333282470703,260.3333282470703],[380.3333282470703,260.3333282470703],[380.3333282470703,260.3333282470703],[381.3333282470703,260.3333282470703],[382.3333282470703,260.3333282470703],[384.3333282470703,260.3333282470703],[386.3333282470703,260.3333282470703],[388.3333282470703,260.3333282470703],[388.3333282470703,260.3333282470703],[390.3333282470703,260.3333282470703],[391.3333282470703,260.3333282470703],[392.3333282470703,260.3333282470703],[392.3333282470703,260.3333282470703],[393.3333282470703,260.3333282470703],[394.3333282470703,260.3333282470703],[395.3333282470703,260.3333282470703],[396.3333282470703,260.3333282470703],[396.3333282470703,260.3333282470703],[396.3333282470703,261.3333282470703],[397.3333282470703,262.3333282470703],[397.3333282470703,262.3333282470703],[398.3333282470703,263.3333282470703],[400.3333282470703,264.3333282470703],[402.3333282470703,264.3333282470703],[403.3333282470703,266.3333282470703],[405.3333282470703,266.3333282470703],[406.3333282470703,267.3333282470703],[406.3333282470703,268.3333282470703],[407.3333282470703,268.3333282470703],[407.3333282470703,268.3333282470703],[408.3333282470703,268.3333282470703],[406.3333282470703,268.3333282470703],[405.3333282470703,268.3333282470703],[404.3333282470703,268.3333282470703],[402.3333282470703,268.3333282470703],[401.3333282470703,268.3333282470703],[400.3333282470703,268.3333282470703],[398.3333282470703,268.3333282470703],[396.3333282470703,268.3333282470703],[395.3333282470703,268.3333282470703],[393.3333282470703,268.3333282470703],[392.3333282470703,268.3333282470703],[389.3333282470703,268.3333282470703],[386.3333282470703,268.3333282470703],[384.3333282470703,268.3333282470703],[384.3333282470703,268.3333282470703],[383.3333282470703,268.3333282470703],[382.3333282470703,268.3333282470703],[380.3333282470703,268.3333282470703],[380.3333282470703,268.3333282470703],[378.3333282470703,269.3333282470703],[376.3333282470703,270.3333282470703],[374.3333282470703,270.3333282470703],[373.3333282470703,270.3333282470703],[370.3333282470703,271.3333282470703],[368.3333282470703,272.3333282470703],[366.3333282470703,272.3333282470703],[364.3333282470703,272.3333282470703],[362.3333282470703,273.3333282470703],[361.3333282470703,273.3333282470703],[360.3333282470703,274.3333282470703],[359.3333282470703,274.3333282470703],[358.3333282470703,274.3333282470703],[357.3333282470703,274.3333282470703],[356.3333282470703,274.3333282470703],[356.3333282470703,274.3333282470703],[354.3333282470703,274.3333282470703],[354.3333282470703,274.3333282470703],[353.3333282470703,274.3333282470703],[351.3333282470703,274.3333282470703],[350.3333282470703,274.3333282470703],[348.3333282470703,274.3333282470703],[346.3333282470703,274.3333282470703],[344.3333282470703,274.3333282470703],[344.3333282470703,274.3333282470703],[343.3333282470703,274.3333282470703],[342.3333282470703,274.3333282470703],[341.3333282470703,274.3333282470703],[339.3333282470703,274.3333282470703],[338.3333282470703,274.3333282470703],[336.3333282470703,274.3333282470703],[334.3333282470703,274.3333282470703],[331.3333282470703,274.3333282470703],[328.3333282470703,274.3333282470703],[326.3333282470703,274.3333282470703],[324.3333282470703,274.3333282470703],[321.3333282470703,274.3333282470703],[320.3333282470703,274.3333282470703],[318.3333282470703,274.3333282470703],[317.3333282470703,274.3333282470703],[316.3333282470703,274.3333282470703],[315.3333282470703,274.3333282470703],[314.3333282470703,274.3333282470703],[314.3333282470703,274.3333282470703],[313.3333282470703,274.3333282470703],[312.3333282470703,274.3333282470703],[312.3333282470703,273.3333282470703],[312.3333282470703,272.3333282470703],[312.3333282470703,271.3333282470703],[314.3333282470703,270.3333282470703],[320.3333282470703,268.3333282470703],[330.3333282470703,266.3333282470703],[338.3333282470703,264.3333282470703],[340.3333282470703,264.3333282470703],[342.3333282470703,264.3333282470703],[344.3333282470703,264.3333282470703],[345.3333282470703,264.3333282470703],[346.3333282470703,264.3333282470703],[346.3333282470703,264.3333282470703],[347.3333282470703,264.3333282470703],[348.3333282470703,264.3333282470703],[348.3333282470703,264.3333282470703],[350.3333282470703,264.3333282470703],[350.3333282470703,264.3333282470703],[351.3333282470703,264.3333282470703],[352.33332824