[{"view_history":"[{\"page_index\":0,\"viewing_time\":1965.0999999977648}]","rt":1966.0999999977648,"trial_type":"instructions","trial_index":0,"time_elapsed":1970,"internal_node_id":"0.0-0.0","participant_id":4038602,"xgorilla":{"user_agent":"Mozilla/5.0 (Macintosh; Intel Mac OS X 10_15_7) AppleWebKit/537.36 (KHTML, like Gecko) Chrome/91.0.4472.101 Safari/537.36","screen_size":"1440x900","browser_size":"1440x702"}},{"instructions":"Wählen sie die Farbe rot und bemalen sie damit die Körperstellen, an denen sie nicht gerne berührt werden. Wählen sie die Farbe blau und bemalen sie damit die Körperstellen, an denen sie gerne berührt werden. Benutzen sie auch die Farbabstufungen.","rt":235724,"strokes":"[{\"color\":\"#04fbfb\",\"size\":\"24\",\"width\":480,\"height\":480,\"stroke\":[[479,275],[479,277],[479,278],[479,279],[479,279]]},{\"color\":\"#09f7f7\",\"size\":\"24\",\"width\":480,\"height\":480,\"stroke\":[[311,105],[311,105],[312,105],[315,105],[317,105],[325,105],[329,105],[334,105],[338,105],[341,105],[344,105],[346,105],[349,105],[351,105],[354,105],[357,105],[363,105],[368,105],[372,105],[376,105],[379,105],[382,106],[385,106],[388,106],[389,106],[390,107],[391,107],[391,107],[390,107],[388,107],[381,106],[372,104],[360,103],[346,103],[338,103],[331,103],[325,103],[320,103],[316,103],[313,103],[311,103],[310,103],[310,103],[310,103],[310,102],[310,101],[312,99],[316,97],[321,95],[329,93],[336,93],[341,93],[346,93],[351,93],[356,93],[360,93],[365,93],[370,93],[373,93],[375,93],[377,93],[379,93],[381,93],[382,93],[385,93],[388,93],[391,93],[393,93],[396,93],[399,93],[401,94],[403,94],[405,94],[406,94],[408,95],[410,95],[412,96],[413,96],[413,97],[414,97],[415,97],[415,98],[415,98],[415,98],[415,98],[415,99],[415,99],[412,99],[407,100],[401,101],[394,102],[388,104],[380,106],[375,108],[368,110],[363,111],[355,112],[350,112],[345,112],[341,112],[338,112],[336,111],[336,111],[337,111],[343,111],[354,112],[374,114],[390,116],[410,118],[420,118],[427,119],[431,119],[432,119],[432,119],[432,119],[429,119],[424,119],[412,116],[391,114],[369,113],[351,113],[324,113],[317,113],[311,113],[309,113],[308,113],[308,114],[308,114],[308,115],[311,116],[317,117],[332,119],[343,119],[354,119],[361,119],[365,119],[365,119],[365,119],[361,119],[345,119],[331,119],[317,119],[310,121],[303,122],[301,123],[300,124],[301,124],[309,124],[328,124],[353,120],[384,118],[404,117],[419,117],[430,117],[435,117],[436,117],[433,117],[419,117],[397,117],[369,117],[350,118],[331,120],[322,121],[316,122],[314,123],[313,123],[313,124],[319,124],[328,125],[348,127],[363,128],[384,130],[395,133],[404,135],[408,136],[408,137],[399,138],[378,138],[362,138],[342,138],[332,138],[324,138],[321,138],[320,138],[321,138],[324,138],[327,138],[337,139],[351,140],[365,142],[376,142],[384,142],[391,142],[392,142],[393,142],[385,140],[370,137],[344,132],[327,130],[306,128],[296,128],[288,128],[286,128],[285,128],[286,128],[288,128],[296,130],[307,132],[333,134],[351,134],[371,134],[383,134],[394,134],[400,135],[403,135],[403,135],[403,135],[395,135],[377,135],[352,135],[330,135],[307,136],[294,137],[283,138],[279,140],[278,140],[278,141],[282,142],[305,143],[329,143],[348,141],[370,137],[382,135],[391,134],[395,134],[396,134],[394,134],[385,136],[370,138],[352,140],[332,141],[318,143],[311,144],[306,145],[303,146],[302,146],[302,147],[304,147],[315,148],[333,150],[360,150],[381,150],[403,150],[412,150],[418,150],[420,150],[420,150],[413,150],[397,150],[373,150],[342,150],[320,150],[291,150],[285,150],[275,150],[274,150],[275,150],[278,150],[288,151],[301,153],[317,154],[333,156],[347,157],[361,159],[368,159],[374,159],[377,159],[378,159],[379,159],[379,159],[375,159],[360,159],[339,159],[322,159],[309,159],[297,161],[292,162],[291,162],[291,162],[303,162],[320,160],[344,157],[360,156],[378,155],[387,155],[395,155],[399,154],[400,154],[401,154],[401,153],[401,152],[400,150],[399,148],[398,146],[396,144],[396,142],[395,138],[395,134],[395,130],[395,128],[396,126],[397,126],[398,126],[399,126],[401,133],[403,145],[406,156],[408,168],[410,172],[410,174],[410,174],[411,175],[411,175],[412,172],[413,167],[415,159],[416,150],[417,144],[417,139],[417,136],[417,135],[417,135],[416,135],[416,135],[415,135],[414,135],[413,135],[413,135],[413,135],[413,137],[413,145],[412,155],[412,164],[411,176],[411,180],[411,184],[411,188],[412,193],[413,198],[414,203],[415,206],[415,208],[415,210],[415,212],[415,215],[416,217],[417,219],[417,221],[418,222],[418,224],[419,225],[420,229],[421,232],[423,235],[424,237],[425,240],[426,244],[428,248],[429,252],[430,255],[431,257],[432,259],[432,262],[433,264],[433,265],[433,266],[433,268],[433,267],[433,265],[433,255],[431,243],[429,233],[426,223],[424,217],[423,213],[423,211],[422,209],[422,207],[421,205],[421,203],[421,202],[421,202],[421,201],[421,201],[422,201],[422,201],[423,201],[423,201],[423,201],[424,201],[424,202],[424,205],[425,211],[426,221],[428,233],[430,241],[432,249],[434,254],[436,258],[438,260],[439,262],[439,263],[440,263],[440,262],[438,253],[431,233],[426,214],[420,192],[416,175],[413,163],[412,157],[412,152],[412,150],[412,149],[412,153],[412,161],[414,174],[417,197],[419,220],[422,237],[424,256],[426,273],[428,282],[429,292],[431,298],[432,301],[433,304],[433,304],[433,305],[434,305],[434,305],[434,305],[434,304],[435,301],[435,299],[435,296],[436,293],[437,290],[438,286],[438,282],[438,275],[438,272],[438,267],[438,263],[438,259],[438,256],[437,254],[437,253],[437,253],[436,253],[436,252],[436,252]]},{\"color\":\"#09f7f7\",\"size\":\"24\",\"width\":480,\"height\":480,\"stroke\":[[310,164],[310,164],[310,165],[310,167],[309,170],[308,173],[307,177],[306,180],[304,183],[302,185],[300,189],[298,193],[296,199],[294,204],[293,208],[292,212],[291,215],[290,219],[288,224],[286,228],[285,232],[283,235],[282,238],[281,241],[280,243],[279,245],[278,247],[277,249],[276,253],[275,256],[274,260],[273,263],[272,265],[271,266],[271,267],[271,268],[271,268],[271,268],[272,268],[274,267],[276,266],[277,264],[279,262],[281,259],[283,256],[285,253],[287,249],[288,246],[290,242],[291,237],[292,232],[293,227],[294,222],[295,218],[296,216],[297,213],[298,211],[299,208],[301,204],[301,200],[302,198],[303,196],[303,193],[303,191],[303,188],[304,186],[304,184],[304,183],[305,182],[305,181],[305,181],[305,181],[306,181],[306,181],[306,184],[306,187],[306,191],[305,195],[305,199],[304,204],[303,209],[303,213],[301,218],[300,222],[299,226],[297,231],[295,237],[294,241],[292,243],[291,246],[290,248],[289,251],[288,254],[286,257],[285,260],[284,264],[283,267],[282,270],[281,273],[280,277],[279,280],[278,282],[277,284],[277,285],[276,286],[276,287],[276,287],[276,286],[276,285],[276,283],[277,280],[278,276],[279,272],[281,269],[281,266],[282,266],[282,265],[282,264],[282,264],[283,264],[283,263],[284,261],[285,259],[286,257],[287,256],[288,254],[288,253],[288,252],[288,251],[289,250],[289,249],[289,249],[289,249],[289,250],[289,253],[289,257],[289,270],[288,279],[288,283],[288,286],[288,287],[287,287],[287,286],[287,285],[287,283],[288,277],[289,268],[289,259],[289,252]]},{\"color\":\"#09f7f7\",\"size\":\"24\",\"width\":480,\"height\":480,\"stroke\":[[330,178],[331,178],[331,178],[332,178],[335,178],[338,178],[346,178],[351,178],[358,178],[367,178],[372,178],[378,178],[382,178],[385,178],[386,178],[386,178],[387,178],[386,178],[379,178],[367,178],[351,178],[336,178],[328,178],[323,178],[319,178],[319,178],[320,178],[322,177],[328,177],[338,177],[351,176],[369,176],[386,176],[401,176],[409,176],[414,176],[416,176],[417,176],[418,176],[415,176],[409,174],[398,171],[376,170],[361,170],[349,170],[338,170],[331,170],[329,170],[328,171],[328,171],[328,171]]},{\"color\":\"#916e6e\",\"size\":\"24\",\"width\":480,\"height\":480,\"stroke\":[[396,196],[395,196],[393,196],[389,196],[386,196],[381,196],[378,196],[373,196],[369,196],[365,196],[362,196],[359,196],[357,196],[357,196],[357,196],[356,196],[355,196],[353,196],[351,196],[349,196],[348,196],[346,196],[345,196],[344,196],[342,197],[341,197],[339,197],[337,197],[336,197],[335,197],[334,197],[333,197],[332,197],[331,197],[331,197],[331,197],[331,198],[331,198],[331,198],[335,201],[339,203],[345,205],[353,208],[364,211],[369,213],[374,214],[377,215],[378,216],[378,216],[378,216],[375,216],[369,216],[360,216],[350,216],[343,216],[338,216],[336,216],[335,216],[341,216],[347,217],[354,218],[361,219],[366,220],[369,220],[371,220],[371,220],[372,220],[372,219],[372,217],[372,215],[371,214],[369,214],[367,213],[361,213],[356,217],[353,219],[349,223],[348,224],[348,224],[348,225],[348,225],[350,225],[351,225],[352,225],[352,225],[352,224],[352,222],[351,220],[348,217],[344,214],[341,213],[339,212],[338,211],[337,211],[337,212],[337,214],[336,215],[335,216],[335,217],[335,217]]},{\"color\":\"#ca3535\",\"size\":\"24\",\"width\":480,\"height\":480,\"stroke\":[[365,244],[364,244],[363,244],[362,244],[361,244],[360,244],[358,244],[357,244],[355,244],[354,244],[353,244],[352,245],[352,247],[352,248],[352,249],[352,249],[352,250],[352,250],[351,247],[350,243],[348,239],[345,234],[344,233],[342,231],[341,231],[340,230],[338,230],[337,230],[336,230],[335,230],[335,230],[335,231],[335,231],[335,232],[336,233],[340,233],[344,233],[348,233],[350,233],[351,233],[351,233],[350,231],[347,230],[344,229],[341,229],[339,229],[337,229],[336,230],[335,235],[334,240],[333,245],[333,250],[333,255],[333,257],[333,258],[333,258],[333,257],[334,252],[334,243],[334,238],[332,233],[330,228],[328,226],[327,224],[327,224],[326,224],[326,225],[326,230],[326,239],[326,246],[326,254],[326,259],[326,262],[326,264],[326,265],[326,265],[326,265],[327,261],[327,255],[327,250],[327,242],[327,238],[327,234],[326,232],[326,232],[326,232],[325,233],[325,240],[325,251],[325,260],[325,268],[327,273],[329,276],[330,277],[332,277],[334,273],[336,264],[341,252],[343,242],[345,235],[346,232],[347,230],[347,230],[347,231],[347,241],[349,257],[351,270],[353,279],[355,287],[356,289],[356,289],[357,286],[358,276],[359,263],[360,250],[362,242],[362,235],[362,233],[363,232],[363,232],[363,233],[364,241],[366,254],[367,264],[368,273],[368,278],[369,281],[369,281],[370,281],[372,275],[375,266],[377,256],[380,249],[381,244],[382,241],[383,240],[383,239],[383,239],[384,239],[384,245],[385,255],[386,263],[387,270],[387,274],[387,275],[387,276],[387,274],[387,267],[387,256],[387,248],[387,241],[387,237],[387,235],[387,234],[387,234],[387,233],[387,232],[387,232],[387,232],[387,231],[387,231],[388,230],[388,229],[389,226],[390,225],[390,224],[390,222],[391,221],[391,219],[391,218],[391,216],[391,215],[391,214],[391,214],[391,213],[391,213],[391,213],[391,213],[391,214],[392,221],[393,231],[394,245],[395,253],[396,262],[397,268],[398,273],[398,277],[398,279],[398,280],[398,281],[398,281],[398,282],[398,282],[397,283],[397,284],[397,284],[397,285],[397,285],[397,286],[397,286],[397,286],[397,287],[396,287],[396,287],[396,287],[396,288],[395,289],[394,290],[393,291],[393,292],[392,292],[390,292],[387,291],[385,289],[381,286],[378,285],[377,285],[375,285],[375,285],[374,287],[374,292],[374,296],[374,302],[374,307],[375,311],[376,313],[379,315],[381,315],[383,316],[385,316],[387,315],[390,313],[391,312],[393,311],[393,311],[393,310],[393,310],[389,309],[382,308],[377,307],[370,307],[365,307],[362,307],[361,308],[361,310],[362,313],[367,315],[374,318],[379,319],[386,320],[389,320],[391,320],[391,320],[390,320],[387,319],[380,314],[370,309],[360,305],[350,303],[345,303],[340,303],[338,303],[336,303],[336,303],[338,303],[344,303],[349,303],[353,301],[356,299],[356,297],[357,294],[356,289],[354,286],[352,282],[349,279],[345,276],[342,274],[339,273],[336,272],[334,272],[333,272],[333,273],[332,278],[331,286],[330,293],[328,299],[328,302],[327,304],[327,304],[327,305],[327,305],[327,303],[327,297],[327,293],[327,289],[327,287],[327,285],[327,285],[327,288],[327,295],[327,304],[327,315],[327,321],[327,326],[328,329],[328,330],[328,330],[329,331],[330,331],[337,331],[343,331],[348,331],[354,331],[357,331],[359,331],[359,331],[359,331],[358,331],[356,330],[350,327],[341,324],[334,321],[326,319],[322,317],[320,316],[320,316],[320,316],[325,316],[334,316],[348,318],[365,319],[376,319],[384,319],[389,319],[390,319],[391,319],[390,319],[389,319],[382,317],[373,313],[364,311],[357,311],[353,310],[351,310],[350,310],[350,311],[353,313],[359,317],[367,320],[376,323],[382,324],[387,325],[389,325],[390,325],[390,326],[390,326],[383,326],[372,326],[357,325],[342,324],[335,324],[328,324],[325,324],[324,324],[325,324],[328,324],[340,326],[352,327],[368,328],[380,329],[390,330],[395,331],[397,331],[398,331],[396,331],[390,331],[374,331],[362,330],[354,329],[346,329],[342,329],[339,329],[338,329],[338,330],[338,331],[338,332],[338,333],[342,334],[348,335],[353,335],[359,335],[362,335],[365,335],[365,335],[365,335],[365,335],[361,333],[357,332],[353,331],[349,330],[347,330]]},{\"color\":\"#738c8c\",\"size\":\"24\",\"width\":480,\"height\":480,\"stroke\":[[389,370],[388,370],[386,370],[381,370],[365,371],[351,377],[334,383],[326,386],[321,388],[318,389],[317,389],[320,388],[329,386],[343,382],[368,377],[382,373],[392,370],[401,366],[404,363],[405,361],[405,358],[401,356],[389,351],[379,349],[373,348],[368,348],[365,348],[364,348],[367,348],[373,348],[378,348],[384,348],[388,348],[389,348],[390,348],[389,348],[386,348],[375,348],[371,348],[358,348],[340,351],[332,352],[326,353],[323,354],[322,354],[324,354],[330,354],[339,355],[350,355],[356,356],[360,356],[363,356],[363,356],[363,356],[353,357],[345,357],[336,358],[330,360],[324,362],[322,363],[322,364],[322,364],[327,365],[346,365],[362,365],[384,361],[398,360],[409,359],[413,359],[413,359],[409,359],[392,363],[360,371],[348,373],[327,378],[321,380],[318,380],[319,380],[323,380],[339,380],[360,380],[375,381],[385,382],[392,383],[395,384],[395,384],[384,386],[366,387],[341,390],[324,392],[308,396],[304,397],[301,398],[301,398],[312,398],[334,398],[367,398],[403,396],[415,394],[429,394],[434,393],[435,393],[424,391],[405,389],[380,389],[364,389],[353,389],[346,392],[342,393],[343,394],[354,396],[372,396],[388,396],[399,396],[406,396],[410,396],[409,395],[396,394],[377,394],[362,394],[343,400],[334,405],[328,408],[326,411],[326,412],[335,413],[342,413],[356,413],[373,413],[379,411],[381,411],[381,409],[374,409],[363,409],[349,409],[337,414],[327,421],[324,425],[321,428],[321,432],[325,434],[340,436],[360,436],[375,434],[383,431],[392,429],[393,427],[388,427],[371,425],[352,425],[331,425],[319,425],[311,427],[309,427],[309,428],[314,428],[332,428],[355,428],[374,427],[395,426],[404,426],[411,426],[412,426],[412,425],[401,425],[382,425],[366,425],[354,425],[345,425],[340,425],[339,425],[341,425],[350,422],[362,417],[370,415],[377,413],[380,412],[381,412],[381,412],[381,412],[381,411],[378,411],[372,411],[366,410],[360,410],[357,409],[356,409],[355,409],[355,409],[356,408]]},{\"color\":\"#f50a0a\",\"size\":\"24\",\"width\":480,\"height\":480,\"stroke\":[[358,476],[363,476],[364,476],[363,476],[359,476],[351,476],[341,476],[329,474],[321,473],[314,472],[311,472],[311,471],[311,471],[326,471],[364,471],[388,471],[413,471],[425,471],[433,471],[436,471],[437,471],[436,471],[432,471],[419,467],[408,464],[391,460],[372,457],[356,456],[348,455],[343,455],[340,455],[342,455],[345,455],[356,455],[377,455],[392,455],[404,455],[414,455],[418,455],[419,455],[419,455],[410,454],[396,454],[378,454],[358,454],[347,454],[335,454],[328,454],[325,455],[324,455],[324,455],[325,455],[326,455],[327,455],[328,455]]},{\"color\":\"#f50a0a\",\"size\":\"24\",\"width\":480,\"height\":480,\"stroke\":[[399,325],[396,325],[390,325],[380,325],[356,325],[336,325],[320,325],[296,325],[288,325],[283,325],[281,325],[281,325],[283,325],[286,325],[299,325],[320,325],[350,325],[386,325],[409,325],[426,325],[439,325],[444,325],[445,325],[446,325],[445,324],[437,322],[420,318],[401,313],[371,309],[350,308],[340,308],[332,308],[329,308],[329,308],[329,308],[337,307],[355,302],[378,298],[406,293],[424,289],[437,287],[446,286],[450,285],[450,285],[446,285],[429,284],[414,284],[396,284],[379,284],[366,284],[358,284],[349,284],[344,284],[342,284],[342,283],[342,282],[342,281],[347,277],[354,274],[364,273],[371,272],[378,272],[383,272],[383,272],[382,272],[374,274],[364,275],[357,277],[350,278],[347,278],[346,278],[345,278],[345,279],[345,279],[346,279],[345,280],[344,280],[343,282],[341,283],[339,284],[337,284],[336,280],[335,273],[333,263],[333,257],[333,245],[333,241],[334,239],[334,239],[334,238],[334,239],[334,241],[334,248],[334,259],[333,271],[330,284],[329,291],[328,297],[328,301],[327,302],[327,302],[326,296],[326,292],[325,272],[325,261],[325,251],[324,247],[324,245],[324,245],[323,245],[323,250],[322,257],[322,267],[322,279],[322,286],[322,292],[322,296],[322,296],[322,297],[324,294],[329,287],[334,279],[339,268],[343,262],[347,255],[349,251],[351,250],[353,249],[357,249],[361,249],[365,250],[369,252],[373,254],[377,255],[379,256],[382,257],[383,257],[384,257],[385,257],[384,257],[380,257],[374,255],[366,254],[361,253],[356,253],[354,253],[354,253],[354,253],[357,253],[363,255],[366,258],[371,262],[374,266],[376,268],[378,271],[379,273],[381,274],[382,275],[384,275],[385,275],[386,274],[387,272],[388,268],[389,264],[389,260],[389,258],[389,255],[389,252],[389,249],[389,246],[389,244],[389,241],[389,241],[389,239],[389,238],[389,236],[389,234],[389,233],[389,232],[389,231],[389,229],[389,228],[389,227],[389,226],[389,225],[389,225],[389,224],[389,224],[389,224],[389,223],[390,221],[390,219],[391,217],[392,215],[392,214],[392,214],[392,215],[391,217],[390,220],[388,224],[387,228],[385,231],[383,233],[381,235],[380,236],[378,238],[375,239],[373,240],[371,241],[369,241],[367,241],[365,241],[364,241],[362,241],[360,240],[358,239],[356,238],[354,236],[352,235],[349,235],[347,234],[344,234],[343,234],[340,233],[339,233],[338,233],[337,233],[336,233],[335,233],[335,233],[334,232],[334,232],[333,232],[333,232],[332,232],[331,232],[330,232],[330,232],[330,232],[330,232]]},{\"color\":\"#f50a0a\",\"size\":\"24\",\"width\":480,\"height\":480,\"stroke\":[[298,278],[298,278],[298,278],[297,278],[297,278],[297,278],[296,278],[295,278],[295,278],[295,278],[294,278],[294,278],[293,278],[291,278],[291,278],[290,279],[290,279],[289,279],[289,279],[289,279],[288,279],[288,279],[287,279],[287,279],[286,279],[286,279],[286,279],[286,279],[285,279],[284,279],[283,279],[283,279],[282,279],[282,279],[282,279],[281,279],[281,279],[280,279],[280,279],[279,279],[279,279],[279,279],[279,279],[278,279],[278,279],[278,278],[277,278],[276,278],[276,277],[276,277],[276,277],[275,276],[275,276],[275,275],[274,275],[274,274],[274,273],[273,273],[273,272],[273,271],[273,271],[273,271],[273,271],[273,269],[273,269],[273,269],[273,268],[273,268],[273,267],[273,267],[273,267],[273,267],[273,266],[273,266],[273,266],[273,265],[273,265],[273,265],[273,265]]},{\"color\":\"#f50a0a\",\"size\":\"24\",\"width\":480,\"height\":480,\"stroke\":[[452,262],[452,262],[452,262],[452,262],[451,262],[451,262],[450,262],[450,262],[449,262],[448,262],[448,262],[447,262],[447,262],[446,263],[446,263],[445,264],[444,264],[443,265],[443,265],[442,266],[441,266],[441,267],[440,267],[439,268],[439,268],[438,268],[438,269],[437,269],[437,270],[436,270],[435,270],[435,270],[435,271],[434,271],[434,271],[433,271],[433,271],[432,272],[432,272],[432,272],[431,272],[431,272],[431,272],[430,272],[429,272],[428,272],[428,272],[427,273],[427,273],[427,273],[427,273],[426,273],[426,273]]},{\"color\":\"#f50a0a\",\"size\":\"24\",\"width\":480,\"height\":480,\"stroke\":[[448,248],[448,248],[448,248],[447,248],[446,248],[442,248],[439,248],[436,248],[434,248],[433,248],[432,248],[431,248],[430,248],[430,248],[429,248],[428,248],[428,248],[428,248],[427,248],[427,248],[426,249],[425,249],[425,249],[425,249],[425,249],[425,249],[425,249],[426,252],[427,254],[428,257],[429,260],[429,261],[429,262],[429,262],[430,262],[430,261],[430,258],[430,254],[430,251],[430,249],[430,248],[430,247],[430,247],[430,246],[430,244],[430,242],[430,241],[430,240],[430,240],[430,242],[430,244],[430,246],[430,247],[430,248],[430,249],[430,249],[430,249],[430,250],[430,250],[430,251],[430,252],[430,253],[430,253],[430,255],[430,256],[430,259],[430,260],[430,260],[430,261],[430,261]]},{\"color\":\"#f50a0a\",\"size\":\"24\",\"width\":480,\"height\":480,\"stroke\":[[284,261],[283,261],[283,260],[283,260],[283,260],[283,259],[283,258],[283,258],[283,257],[283,257],[283,257],[283,256],[284,256],[284,256],[284,255],[285,254],[285,254],[286,253],[286,252],[287,252],[287,252],[287,252],[287,252],[288,251],[288,251],[289,251],[289,250],[290,250],[290,250],[291,250],[291,250],[292,250],[292,250],[293,250],[293,251],[293,252],[293,253],[293,255],[293,256],[293,258],[293,259],[293,260],[293,261],[293,261],[293,262],[293,262],[293,263],[293,263],[292,263],[292,264],[292,264],[292,264],[291,265],[291,266],[290,266],[290,267],[289,267],[289,268],[288,268],[287,269],[287,269],[286,269],[286,270],[285,270],[285,270],[285,270],[285,270]]},{\"color\":\"#f50a0a\",\"size\":\"24\",\"width\":480,\"height\":480,\"stroke\":[[340,21],[340,21],[341,21],[342,21],[347,21],[353,21],[359,21],[367,21],[370,21],[374,21],[377,21],[379,21],[379,21],[380,22],[380,22],[379,23],[374,25],[367,27],[351,30],[339,31],[332,31],[327,31],[322,31],[321,31],[322,31],[324,31],[329,33],[338,35],[349,37],[362,38],[371,39],[379,40],[382,41],[383,41],[383,41],[380,41],[368,41],[358,41],[353,41],[349,41],[344,42],[343,43],[343,43],[343,43],[348,43],[355,44],[365,44],[372,44],[378,44],[383,44],[383,44],[382,44],[375,44],[370,44],[362,44],[352,44],[350,44],[347,44],[347,44],[347,45],[347,46],[350,48],[355,50],[360,51],[365,52],[369,53],[370,53],[370,54],[369,54],[359,55],[356,56],[351,57],[346,57],[344,58],[343,58],[343,58],[344,58],[345,58],[349,59],[353,60],[357,61],[360,61],[361,62],[362,62],[362,62],[362,62],[359,63],[357,63],[354,63],[354,64],[353,64],[353,64],[353,65],[354,65],[354,66],[355,66],[356,67],[356,67],[356,67],[356,67],[355,67],[353,67],[350,67],[347,67],[345,67],[342,67],[342,67],[342,67],[342,67],[344,67],[347,69],[350,70],[353,71],[355,72],[358,72],[360,72],[362,72],[363,72],[364,72],[365,72],[366,72],[367,72],[368,72],[370,72],[372,72],[373,72],[374,72],[375,72],[376,72],[377,72],[377,72],[378,72],[378,72],[378,72],[378,72],[379,72]]},{\"color\":\"#f50a0a\",\"size\":\"24\",\"width\":480,\"height\":480,\"stroke\":[[150,67],[149,67],[146,67],[141,67],[136,67],[129,67],[120,67],[104,67],[89,67],[75,64],[68,62],[62,60],[58,59],[56,59],[55,59],[55,59],[61,59],[69,59],[83,59],[100,59],[114,60],[122,61],[128,62],[131,62],[131,62],[130,62],[127,62],[118,58],[106,53],[90,48],[81,46],[74,43],[71,42],[71,42],[77,42],[95,42],[117,42],[139,42],[154,42],[167,44],[173,45],[174,45],[173,45],[164,45],[151,41],[136,38],[124,35],[117,33],[113,32],[110,31],[110,31],[110,31],[120,31],[125,31],[132,31],[137,31],[138,31],[139,31],[136,30],[126,28],[113,25],[100,25],[93,25],[88,25],[87,25],[86,25],[88,25],[90,25],[100,25],[117,22],[130,18],[136,15],[141,13],[143,11],[142,11],[136,11],[126,11],[116,11],[110,11],[105,13],[103,14],[103,14],[103,15],[108,15],[117,15],[124,16],[130,16],[133,17],[134,18],[133,19],[131,20],[130,20]]},{\"color\":\"#f50a0a\",\"size\":\"24\",\"width\":480,\"height\":480,\"stroke\":[[156,473],[154,471],[152,470],[149,468],[147,466],[145,465],[144,464],[144,464],[144,465],[144,468],[145,470],[149,475],[154,480],[159,482],[164,484],[166,484],[169,484],[169,481],[169,477],[169,473],[164,468],[156,463],[151,461],[145,459],[140,459],[135,459],[128,459],[119,461],[110,464],[103,465],[93,466],[88,466],[82,466],[76,464],[74,462],[73,461],[73,461],[73,460],[76,460],[85,460],[98,460],[118,461],[130,462],[142,463],[147,463],[148,463],[148,463],[140,462],[129,459],[114,454],[89,448],[80,446],[73,445],[70,445],[69,445],[71,445],[79,445],[92,445],[117,445],[136,445],[157,444],[166,444],[172,443],[174,443],[174,442],[172,441],[163,440],[141,440],[123,440],[106,440],[95,440],[85,441],[81,442],[79,442],[80,442],[85,442],[90,442],[111,442],[137,442],[159,442],[178,442],[192,442],[197,442],[198,442],[193,442],[177,442],[157,441],[132,440],[115,440],[103,440],[92,439],[88,439],[87,438],[87,438],[87,437],[89,437]]},{\"color\":\"#f50a0a\",\"size\":\"24\",\"width\":480,\"height\":480,\"stroke\":[[147,270],[147,271],[147,271],[147,271],[146,271],[145,271],[142,271],[137,271],[133,271],[127,271],[122,271],[119,271],[116,270],[114,269],[114,269],[113,269],[113,269],[113,270],[113,271],[115,274],[119,278],[125,283],[133,287],[140,289],[145,290],[148,290],[150,290],[152,290],[152,288],[153,287],[154,285],[154,284],[154,282],[154,280],[153,279],[153,278],[152,277],[152,275],[151,272],[150,269],[150,266],[150,264],[150,261],[150,258],[150,256],[150,255],[150,255],[150,254],[150,255],[150,256],[149,257],[148,261],[146,265],[146,266],[145,268],[145,269],[145,269],[145,269],[145,268],[146,262],[147,259],[147,254],[147,249],[147,245],[147,240],[147,237],[146,234],[145,233],[145,232],[145,232],[145,233],[145,238],[144,243],[143,248],[143,253],[143,256],[143,258],[143,260],[144,260],[144,261],[144,261],[145,261],[145,261],[146,261],[147,260],[149,257],[151,252],[152,245],[152,239],[152,235],[152,233],[152,231],[152,230],[152,228],[152,227],[151,225],[151,224],[150,223],[150,223],[150,222],[150,221],[150,221],[149,219],[149,217],[148,216],[148,215],[148,214],[147,213],[147,211],[147,210],[147,209],[147,208],[147,207],[147,206],[146,205],[146,204],[145,203],[145,202],[145,201],[144,201],[144,201],[143,200],[142,200],[140,199],[138,199],[136,198],[135,198],[134,198],[133,198],[131,197],[129,197],[128,197],[127,197],[126,197],[125,197],[123,197],[122,197],[120,197],[118,197],[116,197],[114,197],[110,197],[108,197],[106,198],[104,198],[102,198],[101,199],[100,199],[99,199],[98,200],[97,200],[96,201],[95,201],[94,202],[94,203],[93,204],[92,206],[91,208],[90,210],[89,211],[88,214],[88,215],[87,217],[87,217],[87,219],[86,219],[86,220],[86,221],[86,222],[85,223],[85,224],[84,226],[84,227],[84,228],[83,229],[83,230],[83,231],[83,232],[82,234],[82,236],[82,237],[82,239],[82,241],[82,242],[81,244],[81,246],[81,248],[81,250],[81,252],[80,254],[80,256],[80,258],[79,259],[79,261],[79,263],[79,264],[79,267],[79,269],[79,272],[79,274],[79,275],[79,277],[79,278],[79,280],[79,282],[79,283],[79,285],[79,287],[79,288],[79,290],[79,292],[79,295],[79,297],[79,301],[79,303],[79,304],[79,306],[79,308],[79,310],[79,312],[79,314],[79,316],[80,318],[80,319],[81,320],[81,322],[82,323],[83,324],[83,325],[85,325],[87,327],[89,327],[92,328],[94,329],[96,330],[98,330],[100,330],[102,330],[104,330],[106,330],[109,330],[110,330],[112,330],[114,330],[117,330],[120,330],[123,330],[126,330],[127,330],[129,330],[130,329],[132,328],[133,328],[135,327],[136,326],[137,326],[138,325],[139,324],[140,323],[141,322],[142,320],[143,318],[144,315],[145,313],[145,310],[146,308],[146,306],[146,304],[146,302],[146,300],[147,298],[147,296],[147,295],[147,295],[146,295],[146,296],[146,296],[143,299],[141,302],[138,304],[137,306],[134,308],[131,310],[127,311],[124,312],[120,313],[116,314],[113,315],[110,315],[109,316],[107,316],[106,316],[105,316],[104,316],[102,315],[100,314],[99,313],[97,311],[96,310],[95,308],[94,307],[94,304],[94,301],[94,295],[94,290],[96,285],[97,280],[98,275],[99,272],[100,268],[100,264],[101,258],[101,257],[101,256],[101,258],[101,260],[101,268],[99,278],[98,285],[97,293],[97,297],[97,299],[97,300],[97,300],[99,300],[103,300],[106,300],[110,298],[113,296],[117,292],[119,290],[120,286],[122,283],[122,281],[123,279],[123,279],[123,278],[123,278],[123,280],[123,283],[123,287],[123,293],[123,298],[122,301],[122,303],[122,304],[122,304],[121,303],[121,299],[119,292],[117,282],[114,272],[112,266],[109,260],[108,255],[107,252],[106,249],[106,247],[106,245],[106,243],[107,239],[108,239],[108,238],[108,238],[108,238],[105,241],[103,245],[100,248],[99,250],[99,252],[99,252],[99,252],[99,252],[100,252],[102,250],[104,246],[108,239],[109,233],[109,228],[109,224],[109,221],[109,218],[109,216],[108,215],[108,214],[108,214],[108,214],[109,213],[111,212],[113,211],[114,211],[116,211],[117,211],[120,211],[121,211],[122,211],[122,211],[123,211],[123,211],[123,212],[123,215],[120,220],[116,227],[112,232],[110,236],[109,239],[108,241],[108,244],[108,246],[108,249],[109,250],[111,252],[112,253],[113,253],[115,253],[116,253],[118,252],[120,248],[122,243],[123,234],[123,232],[123,224],[123,221],[123,219],[123,219],[123,218],[123,218],[121,218],[116,220],[112,221],[106,222],[102,223],[99,223],[97,223],[97,223],[96,223],[96,223],[96,225],[96,227],[96,229],[97,231],[100,234],[104,236],[108,237],[113,238],[117,238],[121,238],[125,238],[128,236],[131,234],[133,232],[134,230],[135,227],[135,225],[135,223],[135,221],[135,221],[135,220],[135,220],[134,222],[133,227],[131,235],[129,242],[128,247],[128,252],[128,254],[128,255],[128,256],[128,256],[128,256],[129,255],[131,252],[133,247],[137,238],[138,231],[139,222],[139,214],[139,212],[139,211],[138,211],[137,212],[134,218],[128,231],[124,245],[121,259],[120,265],[119,270],[119,272],[119,273],[119,273],[119,272],[121,267],[122,262],[123,254],[123,245],[123,238],[122,232],[119,227],[117,223],[115,220],[111,216],[109,212],[106,208],[104,205],[102,204],[101,203],[100,203],[100,203],[100,202],[100,202],[100,202],[100,202],[100,202],[100,201],[99,200],[99,198],[98,196],[97,193],[96,191],[95,189],[94,187],[93,186],[92,184],[92,184],[92,183],[92,181],[92,180],[92,178],[92,178],[92,177],[92,176],[92,176],[92,175],[92,174],[92,173],[92,173],[92,172],[92,172],[92,170],[92,169],[92,169],[92,168],[92,168],[92,167],[92,167],[92,166],[92,165],[92,165],[92,165],[92,164],[92,164],[92,163],[92,163],[92,162],[92,161],[92,161],[92,160],[92,160],[92,159],[93,158],[93,157],[93,157],[93,156],[93,156],[93,154],[94,153],[94,152],[94,151],[94,151],[94,150],[94,150],[94,149],[94,148],[94,148],[94,148],[94,148],[94,147],[94,147],[94,146],[95,145],[95,145],[95,145],[95,144],[95,144],[95,144],[96,144],[96,143],[96,142],[97,142],[97,141],[98,140],[99,140],[99,139],[100,139],[100,139],[101,138],[101,138],[102,138],[102,138],[103,138],[104,137],[106,137],[107,137],[107,137],[108,137],[108,137],[108,137],[109,137],[109,136],[109,136],[109,136],[109,136],[109,136],[108,136],[107,136],[107,136],[106,136],[106,136],[105,136],[105,136],[104,136],[104,136],[103,135],[103,135],[103,135],[103,135],[103,132],[103,130],[103,129],[103,128],[103,127],[103,126],[103,125],[103,124],[103,123],[103,122],[103,122],[103,121],[103,120],[103,120],[103,120],[103,119],[103,119],[103,119],[103,118],[103,118],[103,118],[103,118],[103,117],[103,116],[103,116],[103,115],[103,115],[103,115],[103,115],[103,115],[103,114],[103,114],[103,114],[104,113],[106,113],[107,112],[108,112],[110,111],[111,111],[112,111],[113,111],[114,111],[115,111],[117,111],[119,110],[120,110],[121,110],[122,110],[123,110],[124,110],[125,110],[127,110],[129,110],[130,110],[131,110],[131,110],[132,110],[132,110],[133,110],[134,110],[136,110],[136,110],[138,110],[138,110],[138,110],[138,110],[139,110],[139,110],[140,111],[140,111],[140,112],[140,112],[141,113],[141,114],[141,114],[142,116],[142,117],[142,118],[143,119],[143,122],[144,124],[144,125],[144,127],[145,128],[145,130],[145,131],[145,132],[146,133],[146,135],[146,137],[146,138],[146,139],[146,141],[146,143],[146,144],[146,146],[146,148],[146,151],[146,152],[146,155],[146,157],[146,159],[146,160],[146,162],[146,163],[146,165],[146,167],[146,170],[146,171],[146,173],[146,174],[146,176],[146,178],[146,179],[146,181],[146,183],[146,185],[146,186],[146,186],[145,187],[143,187],[142,187],[140,188],[139,188],[136,188],[134,188],[131,188],[129,188],[127,188],[125,188],[123,187],[121,186],[117,183],[114,182],[113,181],[111,179],[110,177],[108,174],[105,171],[103,168],[101,166],[100,164],[100,163],[100,161],[100,158],[100,155],[101,152],[102,150],[103,148],[104,146],[106,144],[109,140],[111,137],[112,135],[113,133],[114,132],[114,131],[115,130],[116,129],[116,127],[117,126],[119,125],[121,124],[123,123],[125,122],[126,121],[127,121],[128,121],[128,121],[129,124],[130,127],[131,132],[131,135],[131,138],[131,142],[131,148],[131,152],[131,157],[131,161],[131,164],[131,166],[131,168],[131,170],[131,172],[132,174],[132,176],[132,178],[132,178],[132,179],[131,178],[130,177],[130,175],[127,171],[124,167],[122,163],[121,160],[120,158],[120,157],[120,157],[119,156],[119,156],[119,156],[118,156],[116,157],[114,158],[112,159],[111,159],[110,159],[109,159],[108,158],[108,157],[107,155],[106,153],[104,149],[103,146],[101,144],[100,142],[100,141],[99,139],[98,138],[97,137],[96,135],[96,134],[96,133],[95,132],[95,132],[95,131],[95,127],[95,126],[95,126],[95,124],[95,123],[95,123],[95,123],[95,122],[95,122],[95,121],[96,120],[96,119],[97,119],[97,119],[98,119],[98,118],[99,117],[100,117],[101,116],[102,116],[102,116],[103,116],[105,116],[106,116],[108,116],[109,116],[111,116],[112,116],[113,116],[114,116],[115,116],[116,116],[118,115],[119,115],[120,115],[121,115],[122,114],[123,114],[124,114],[127,113],[129,113],[131,112],[132,112],[134,112],[135,112],[137,112],[137,112],[140,112],[140,112],[141,113],[142,115],[142,118],[142,120],[142,121],[142,123],[142,123],[142,125],[142,127],[142,129],[142,132],[142,134],[142,137],[142,139],[142,142],[142,145],[142,148],[142,150],[142,153],[142,157],[142,161],[142,166],[142,170],[142,172],[142,174],[142,174],[142,175],[142,175],[142,175],[142,176],[142,176],[142,177],[141,179],[141,181],[141,183],[141,185],[141,188],[141,190],[141,192],[141,194],[141,194],[141,194]]},{\"color\":\"#54abab\",\"size\":\"24\",\"width\":480,\"height\":480,\"stroke\":[[163,95],[163,95],[163,95],[163,95],[161,95],[159,95],[157,95],[155,95],[153,95],[150,95],[148,95],[147,95],[145,95],[144,95],[142,95],[141,95],[140,95],[139,95],[137,95],[136,95],[135,94],[134,94],[132,94],[131,94],[129,94],[127,93],[124,93],[122,92],[119,91],[116,91],[113,90],[110,90],[107,90],[104,90],[101,90],[100,90],[98,90],[97,90],[95,90],[94,90],[92,90],[90,90],[88,90],[86,90],[84,90],[83,91],[81,91],[79,92],[77,92],[76,93],[74,93],[73,94],[72,94],[72,94],[72,94],[71,94],[72,94],[73,94],[82,92],[93,89],[106,87],[113,86],[120,85],[125,85],[129,85],[132,85],[134,85],[137,85],[140,85],[143,86],[147,87],[154,88],[158,89],[163,90],[167,91],[169,91],[171,92],[171,92],[171,92]]},{\"color\":\"#02fdfd\",\"size\":\"24\",\"width\":480,\"height\":480,\"stroke\":[[178,100],[177,100],[176,100],[175,100],[170,100],[166,100],[161,100],[157,100],[153,100],[148,100],[145,100],[142,100],[138,100],[134,100],[130,100],[127,100],[124,100],[121,100],[118,100],[115,100],[113,100],[111,100],[109,100],[107,100],[104,100],[102,100],[100,100],[98,100],[96,100],[94,100],[93,100],[91,100],[90,100],[89,100],[87,100],[86,100],[85,100],[84,100],[82,100],[81,101],[81,101],[80,101],[79,101],[79,101],[79,101],[80,101],[82,100],[84,99],[87,98],[91,96],[95,95],[98,94],[99,93],[101,92],[103,91],[104,90],[106,89],[108,88],[110,87],[110,87],[111,87],[112,86],[113,86],[116,86],[118,85],[120,85],[121,85],[123,85],[123,85],[125,85],[126,85],[128,85],[129,85],[130,85],[131,85],[132,85],[133,85],[134,85],[135,85],[137,85],[139,85],[140,85],[141,85],[142,85],[142,85],[142,86],[141,86],[135,87],[127,88],[118,89],[111,90],[102,92],[94,92],[90,93],[87,93],[86,94],[84,94],[82,96],[81,97],[79,98],[77,99],[75,100],[74,101],[73,102],[71,103],[70,103],[69,104],[68,105],[67,105],[66,106],[65,106],[64,106],[64,107],[63,107],[63,107],[63,107],[64,106],[68,105],[72,104],[77,103],[82,102],[89,101],[91,100],[96,99],[99,98],[105,95],[108,95],[111,94],[113,93],[116,93],[119,93],[122,93],[126,93],[130,93],[133,93],[136,93],[139,93],[142,93],[145,93],[150,93],[152,93],[156,93],[160,93],[165,93],[166,93],[168,93],[169,94],[170,94],[171,94],[172,95],[173,95],[174,95],[175,95],[175,95],[176,95],[176,95],[177,95],[177,95],[177,95],[177,96],[177,96]]},{\"color\":\"#57a8a8\",\"size\":\"24\",\"width\":480,\"height\":480,\"stroke\":[[171,113],[170,112],[170,112],[170,113],[170,114],[170,117],[170,125],[170,129],[170,134],[170,138],[170,141],[170,143],[170,145],[170,147],[170,150],[170,153],[170,156],[170,158],[170,159],[170,160],[170,160],[170,161],[170,160],[170,151],[168,141],[167,132],[166,124],[166,120],[165,118],[165,117],[165,117],[165,116],[165,115],[165,114],[166,111],[166,110],[166,110],[166,109],[166,109],[166,110],[166,110],[166,112],[167,115],[167,117],[167,120],[167,123],[168,126],[169,133],[170,138],[172,143],[173,146],[174,150],[174,153],[175,156],[176,160],[177,164],[178,167],[178,171],[179,175],[180,179],[181,183],[182,189],[182,194],[183,198],[184,203],[185,209],[186,215],[188,221],[189,226],[191,232],[193,240],[194,245],[197,252],[199,256],[201,261],[204,266],[205,269],[206,271],[207,272],[207,273],[207,273],[207,273],[207,271],[205,262],[201,252],[195,238],[192,231],[189,222],[185,214],[184,209],[183,204],[181,200],[180,196],[179,194],[178,193],[178,192],[177,191],[176,188],[175,186],[174,183],[173,182],[172,179],[171,178],[171,177],[171,177],[170,177],[170,177],[170,177],[170,180],[170,184],[170,188],[170,196],[170,202],[171,210],[173,216],[175,225],[176,229],[177,234],[179,237],[181,242],[181,246],[182,249],[183,252],[184,254],[184,255],[184,256],[184,257],[185,259],[185,260],[186,260],[186,261],[186,261],[186,261],[186,262],[186,263],[187,263],[187,264],[187,264],[187,263],[187,262]]},{\"color\":\"#57a8a8\",\"size\":\"24\",\"width\":480,\"height\":480,\"stroke\":[[42,284],[42,283],[42,283],[42,281],[42,278],[42,273],[42,267],[42,261],[42,256],[42,251],[42,248],[42,248],[42,248],[41,249],[40,255],[38,259],[37,262],[37,264],[37,265],[37,266],[37,266],[42,261],[48,254],[54,247],[57,241],[61,235],[62,230],[63,227],[63,225],[63,224],[63,225],[63,228],[63,232],[62,237],[60,244],[58,249],[57,251],[56,252],[56,253],[55,253],[55,252],[55,247],[55,240],[55,227],[55,217],[56,207],[57,199],[58,195],[58,192],[58,191],[58,192],[58,207],[55,223],[51,242],[45,263],[42,274],[41,280],[40,282],[40,283],[40,283],[40,283],[41,277],[44,267],[49,253],[54,236],[59,218],[61,208],[63,199],[64,193],[65,190],[66,189],[66,189],[66,189],[66,194],[66,203],[64,220],[60,233],[56,244],[53,252],[52,256],[51,257],[51,258],[51,257],[51,253],[53,243],[57,231],[61,216],[64,203],[65,196],[67,185],[68,179],[68,175],[68,172],[68,170],[68,169],[68,168],[68,167],[68,166],[68,164],[68,162],[68,161],[68,159],[68,157],[68,156],[68,154],[68,152],[68,150],[68,148],[68,148],[68,147],[68,147],[68,146],[68,144],[68,142],[68,141],[68,141],[68,140],[68,139],[68,137],[68,134],[68,132],[68,130],[68,129],[68,128],[68,127],[69,124],[70,122],[70,121],[70,120],[70,120],[70,119],[70,119],[70,117],[70,116],[70,116],[70,115],[70,115],[70,116],[70,116],[71,116],[71,117],[71,118],[72,120],[72,123],[72,128],[72,131],[71,135],[70,138],[69,139],[69,139],[69,140],[69,140],[69,141],[69,143],[69,145],[69,146],[69,147],[69,148],[69,148],[69,149],[69,150],[69,151],[69,152],[69,152],[69,152]]}]","trial_type":"paint","trial_index":1,"time_elapsed":238244,"internal_node_id":"0.0-1.0","participant_id":4038602,"xgorilla":{"user_agent":"Mozilla/5.0 (Macintosh; Intel Mac OS X 10_15_7) AppleWebKit/537.36 (KHTML, like Gecko) Chrome/91.0.4472.101 Safari/537.36","screen_size":"1440x900","browser_size":"1440x702"},"duration":238760,"interactionData":"[]"}]