[{"view_history":"[{\"page_index\":0,\"viewing_time\":10471.299999952316}]","rt":10472.400000095367,"trial_type":"instructions","trial_index":0,"time_elapsed":10485,"internal_node_id":"0.0-0.0","participant_id":4124045,"xgorilla":{"user_agent":"Mozilla/5.0 (Windows NT 10.0; Win64; x64) AppleWebKit/537.36 (KHTML, like Gecko) Chrome/91.0.4472.114 Safari/537.36 Edg/91.0.864.54","screen_size":"1280x720","browser_size":"1266x599"}},{"instructions":"Wählen sie die Farbe rot und bemalen sie damit die Körperstellen, an denen sie nicht gerne berührt werden. Wählen sie die Farbe blau und bemalen sie damit die Körperstellen, an denen sie gerne berührt werden. Benutzen sie auch die Farbabstufungen.","rt":310392,"strokes":"[{\"color\":\"#11eeee\",\"size\":\"24\",\"width\":480,\"height\":480,\"stroke\":[[355.3333282470703,189.33333206176758]]},{\"color\":\"#11eeee\",\"size\":\"24\",\"width\":480,\"height\":480,\"stroke\":[[354.3333282470703,191.33333206176758],[354.3333282470703,192.33333206176758],[354.3333282470703,192.33333206176758],[354.3333282470703,193.33333206176758],[354.3333282470703,197.33333206176758],[354.3333282470703,199.33333206176758],[354.3333282470703,201.33333206176758],[354.3333282470703,202.33333206176758],[354.3333282470703,204.33333206176758],[354.3333282470703,206.33333206176758],[354.3333282470703,209.33333206176758],[354.3333282470703,211.33333206176758],[354.3333282470703,215.33333206176758],[354.3333282470703,216.33333206176758],[354.3333282470703,218.33333206176758],[354.3333282470703,220.33333206176758],[354.3333282470703,223.33333206176758],[354.3333282470703,226.33333206176758],[354.3333282470703,228.33333206176758],[354.3333282470703,232.33333206176758],[354.3333282470703,234.33333206176758],[354.3333282470703,234.33333206176758],[354.3333282470703,236.33333206176758],[354.3333282470703,237.33333206176758],[354.3333282470703,240.33333206176758],[354.3333282470703,240.33333206176758],[354.3333282470703,242.33333206176758],[354.3333282470703,242.33333206176758],[354.3333282470703,243.33333206176758],[354.3333282470703,244.33333206176758],[354.3333282470703,244.33333206176758]]},{\"color\":\"#11eeee\",\"size\":\"24\",\"width\":480,\"height\":480,\"stroke\":[[357.3333282470703,228.33333206176758],[357.3333282470703,228.33333206176758],[360.3333282470703,228.33333206176758],[361.3333282470703,228.33333206176758],[365.3333282470703,230.33333206176758],[369.3333282470703,230.33333206176758],[371.3333282470703,230.33333206176758],[376.3333282470703,230.33333206176758],[377.3333282470703,230.33333206176758],[378.3333282470703,230.33333206176758],[379.3333282470703,230.33333206176758],[375.3333282470703,231.33333206176758],[369.3333282470703,231.33333206176758],[363.3333282470703,232.33333206176758],[361.3333282470703,232.33333206176758],[359.3333282470703,232.33333206176758],[357.3333282470703,232.33333206176758],[356.3333282470703,233.33333206176758],[355.3333282470703,233.33333206176758],[351.3333282470703,233.33333206176758],[349.3333282470703,233.33333206176758],[345.3333282470703,233.33333206176758],[343.3333282470703,233.33333206176758],[342.3333282470703,233.33333206176758],[342.3333282470703,234.33333206176758],[341.3333282470703,234.33333206176758],[337.3333282470703,234.33333206176758],[334.3333282470703,234.33333206176758],[327.3333282470703,234.33333206176758],[323.3333282470703,235.33333206176758],[326.3333282470703,235.33333206176758],[327.3333282470703,235.33333206176758],[330.3333282470703,235.33333206176758],[334.3333282470703,235.33333206176758],[345.3333282470703,235.33333206176758],[358.3333282470703,235.33333206176758],[373.3333282470703,236.33333206176758],[379.3333282470703,236.33333206176758],[385.3333282470703,237.33333206176758],[387.3333282470703,237.33333206176758],[387.3333282470703,237.33333206176758],[390.3333282470703,237.33333206176758],[393.3333282470703,238.33333206176758],[395.3333282470703,238.33333206176758],[397.3333282470703,239.33333206176758],[400.3333282470703,240.33333206176758],[401.3333282470703,240.33333206176758],[404.3333282470703,241.33333206176758],[404.3333282470703,242.33333206176758],[403.3333282470703,242.33333206176758],[403.3333282470703,242.33333206176758],[397.3333282470703,244.33333206176758],[387.3333282470703,246.33333206176758],[375.3333282470703,246.33333206176758],[366.3333282470703,246.33333206176758],[362.3333282470703,247.33333206176758],[359.3333282470703,247.33333206176758],[358.3333282470703,247.33333206176758],[357.3333282470703,247.33333206176758],[355.3333282470703,247.33333206176758],[353.3333282470703,248.33333206176758],[349.3333282470703,248.33333206176758],[347.3333282470703,248.33333206176758],[341.3333282470703,249.33333206176758],[338.3333282470703,249.33333206176758],[336.3333282470703,249.33333206176758],[334.3333282470703,249.33333206176758],[333.3333282470703,249.33333206176758],[333.3333282470703,249.33333206176758],[333.3333282470703,250.33333206176758],[335.3333282470703,250.33333206176758],[338.3333282470703,250.33333206176758],[345.3333282470703,252.33333206176758],[356.3333282470703,252.33333206176758],[369.3333282470703,253.33333206176758],[375.3333282470703,253.33333206176758],[383.3333282470703,253.33333206176758],[385.3333282470703,253.33333206176758],[387.3333282470703,253.33333206176758],[387.3333282470703,254.33333206176758],[390.3333282470703,254.33333206176758],[393.3333282470703,254.33333206176758],[395.3333282470703,254.33333206176758],[398.3333282470703,255.33333206176758],[399.3333282470703,255.33333206176758],[401.3333282470703,256.3333320617676],[403.3333282470703,256.3333320617676],[403.3333282470703,257.3333320617676],[401.3333282470703,258.3333320617676],[400.3333282470703,258.3333320617676],[397.3333282470703,259.3333320617676],[392.3333282470703,260.3333320617676],[386.3333282470703,262.3333320617676],[381.3333282470703,262.3333320617676],[369.3333282470703,263.3333320617676],[366.3333282470703,263.3333320617676],[362.3333282470703,264.3333320617676],[358.3333282470703,264.3333320617676],[353.3333282470703,264.3333320617676],[349.3333282470703,264.3333320617676],[346.3333282470703,264.3333320617676],[343.3333282470703,266.3333320617676],[339.3333282470703,267.3333320617676],[337.3333282470703,268.3333320617676],[335.3333282470703,268.3333320617676],[334.3333282470703,268.3333320617676],[331.3333282470703,268.3333320617676],[331.3333282470703,268.3333320617676],[330.3333282470703,268.3333320617676],[328.3333282470703,268.3333320617676],[327.3333282470703,268.3333320617676],[326.3333282470703,268.3333320617676],[324.3333282470703,269.3333320617676],[321.3333282470703,270.3333320617676],[320.3333282470703,272.3333320617676],[320.3333282470703,272.3333320617676],[320.3333282470703,273.3333320617676],[321.3333282470703,274.3333320617676],[322.3333282470703,274.3333320617676],[324.3333282470703,274.3333320617676],[325.3333282470703,275.3333320617676],[326.3333282470703,276.3333320617676],[329.3333282470703,276.3333320617676],[337.3333282470703,279.3333320617676],[343.3333282470703,279.3333320617676],[349.3333282470703,280.3333320617676],[353.3333282470703,280.3333320617676],[357.3333282470703,280.3333320617676],[361.3333282470703,280.3333320617676],[365.3333282470703,280.3333320617676],[368.3333282470703,280.3333320617676],[372.3333282470703,281.3333320617676],[374.3333282470703,281.3333320617676],[377.3333282470703,281.3333320617676],[380.3333282470703,281.3333320617676],[384.3333282470703,281.3333320617676],[387.3333282470703,281.3333320617676],[394.3333282470703,281.3333320617676],[399.3333282470703,281.3333320617676],[400.3333282470703,281.3333320617676],[399.3333282470703,281.3333320617676],[394.3333282470703,281.3333320617676],[390.3333282470703,281.3333320617676],[369.3333282470703,283.3333320617676],[359.3333282470703,283.3333320617676],[349.3333282470703,283.3333320617676],[342.3333282470703,283.3333320617676],[337.3333282470703,283.3333320617676],[337.3333282470703,283.3333320617676],[335.3333282470703,283.3333320617676],[333.3333282470703,283.3333320617676],[331.3333282470703,283.3333320617676],[330.3333282470703,282.3333320617676],[329.3333282470703,281.3333320617676],[327.3333282470703,281.3333320617676],[326.3333282470703,279.3333320617676],[325.3333282470703,277.3333320617676],[325.3333282470703,276.3333320617676],[325.3333282470703,275.3333320617676],[325.3333282470703,274.3333320617676],[325.3333282470703,272.3333320617676],[325.3333282470703,271.3333320617676],[325.3333282470703,268.3333320617676],[325.3333282470703,267.3333320617676],[325.3333282470703,266.3333320617676],[325.3333282470703,264.3333320617676],[325.3333282470703,263.3333320617676],[325.3333282470703,259.3333320617676],[325.3333282470703,258.3333320617676],[325.3333282470703,256.3333320617676],[325.3333282470703,254.33333206176758],[325.3333282470703,252.33333206176758],[327.3333282470703,250.33333206176758],[327.3333282470703,246.33333206176758],[328.3333282470703,243.33333206176758],[328.3333282470703,239.33333206176758],[328.3333282470703,238.33333206176758],[328.3333282470703,236.33333206176758],[328.3333282470703,235.33333206176758],[328.3333282470703,234.33333206176758],[328.3333282470703,233.33333206176758],[328.3333282470703,232.33333206176758],[329.3333282470703,231.33333206176758],[329.3333282470703,231.33333206176758],[329.3333282470703,230.33333206176758],[329.3333282470703,230.33333206176758],[329.3333282470703,229.33333206176758],[330.3333282470703,229.33333206176758],[330.3333282470703,228.33333206176758],[330.3333282470703,227.33333206176758],[331.3333282470703,226.33333206176758],[331.3333282470703,225.33333206176758],[331.3333282470703,224.33333206176758],[331.3333282470703,224.33333206176758],[331.3333282470703,220.33333206176758],[331.3333282470703,216.33333206176758],[332.3333282470703,212.33333206176758],[332.3333282470703,210.33333206176758],[332.3333282470703,209.33333206176758],[333.3333282470703,209.33333206176758],[333.3333282470703,209.33333206176758],[337.3333282470703,209.33333206176758],[348.3333282470703,209.33333206176758],[357.3333282470703,209.33333206176758],[363.3333282470703,209.33333206176758],[366.3333282470703,210.33333206176758],[368.3333282470703,210.33333206176758],[369.3333282470703,211.33333206176758],[373.3333282470703,211.33333206176758],[375.3333282470703,212.33333206176758],[377.3333282470703,213.33333206176758],[378.3333282470703,213.33333206176758],[379.3333282470703,213.33333206176758],[379.3333282470703,213.33333206176758],[380.3333282470703,214.33333206176758],[381.3333282470703,214.33333206176758],[381.3333282470703,214.33333206176758],[382.3333282470703,214.33333206176758],[383.3333282470703,214.33333206176758],[384.3333282470703,216.33333206176758],[385.3333282470703,216.33333206176758],[385.3333282470703,218.33333206176758],[387.3333282470703,221.33333206176758],[388.3333282470703,223.33333206176758],[389.3333282470703,225.33333206176758],[391.3333282470703,228.33333206176758],[393.3333282470703,228.33333206176758],[393.3333282470703,230.33333206176758],[394.3333282470703,230.33333206176758],[394.3333282470703,231.33333206176758],[394.3333282470703,232.33333206176758],[394.3333282470703,232.33333206176758],[394.3333282470703,234.33333206176758],[395.3333282470703,235.33333206176758],[395.3333282470703,236.33333206176758],[395.3333282470703,237.33333206176758]]},{\"color\":\"#11eeee\",\"size\":\"24\",\"width\":480,\"height\":480,\"stroke\":[[130.3333282470703,264.3333320617676]]},{\"color\":\"#b84747\",\"size\":\"24\",\"width\":480,\"height\":480,\"stroke\":[[385.3333282470703,256.3333320617676]]},{\"color\":\"#b84747\",\"size\":\"24\",\"width\":480,\"height\":480,\"stroke\":[[385.3333282470703,256.3333320617676],[387.3333282470703,256.3333320617676],[387.3333282470703,256.3333320617676],[389.3333282470703,256.3333320617676],[389.3333282470703,256.3333320617676],[390.3333282470703,256.3333320617676],[391.3333282470703,256.3333320617676],[391.3333282470703,256.3333320617676],[393.3333282470703,256.3333320617676],[393.3333282470703,256.3333320617676],[393.3333282470703,255.33333206176758],[392.3333282470703,254.33333206176758],[391.3333282470703,253.33333206176758],[391.3333282470703,252.33333206176758],[390.3333282470703,252.33333206176758],[390.3333282470703,251.33333206176758],[388.3333282470703,250.33333206176758],[385.3333282470703,249.33333206176758],[383.3333282470703,248.33333206176758],[378.3333282470703,247.33333206176758],[376.3333282470703,247.33333206176758],[375.3333282470703,247.33333206176758],[375.3333282470703,247.33333206176758],[374.3333282470703,247.33333206176758],[373.3333282470703,247.33333206176758],[373.3333282470703,247.33333206176758],[372.3333282470703,247.33333206176758],[370.3333282470703,247.33333206176758],[369.3333282470703,247.33333206176758],[368.3333282470703,246.33333206176758],[366.3333282470703,246.33333206176758],[364.3333282470703,246.33333206176758],[361.3333282470703,246.33333206176758],[355.3333282470703,246.33333206176758],[352.3333282470703,246.33333206176758],[343.3333282470703,246.33333206176758],[337.3333282470703,245.33333206176758],[333.3333282470703,245.33333206176758],[326.3333282470703,245.33333206176758],[324.3333282470703,245.33333206176758],[323.3333282470703,245.33333206176758],[323.3333282470703,245.33333206176758],[322.3333282470703,245.33333206176758],[323.3333282470703,245.33333206176758],[323.3333282470703,245.33333206176758],[324.3333282470703,245.33333206176758],[326.3333282470703,245.33333206176758],[327.3333282470703,245.33333206176758],[331.3333282470703,243.33333206176758],[335.3333282470703,243.33333206176758],[341.3333282470703,242.33333206176758],[347.3333282470703,242.33333206176758],[351.3333282470703,242.33333206176758],[356.3333282470703,242.33333206176758],[360.3333282470703,240.33333206176758],[363.3333282470703,240.33333206176758],[366.3333282470703,240.33333206176758],[367.3333282470703,240.33333206176758],[370.3333282470703,240.33333206176758],[371.3333282470703,240.33333206176758],[377.3333282470703,240.33333206176758],[382.3333282470703,241.33333206176758],[385.3333282470703,241.33333206176758],[387.3333282470703,241.33333206176758],[387.3333282470703,241.33333206176758],[388.3333282470703,241.33333206176758],[389.3333282470703,241.33333206176758],[391.3333282470703,241.33333206176758],[392.3333282470703,241.33333206176758],[393.3333282470703,241.33333206176758],[391.3333282470703,241.33333206176758],[391.3333282470703,241.33333206176758],[387.3333282470703,241.33333206176758],[385.3333282470703,241.33333206176758],[383.3333282470703,241.33333206176758],[381.3333282470703,241.33333206176758],[377.3333282470703,241.33333206176758],[376.3333282470703,241.33333206176758],[374.3333282470703,241.33333206176758],[372.3333282470703,241.33333206176758],[371.3333282470703,241.33333206176758],[370.3333282470703,241.33333206176758],[366.3333282470703,241.33333206176758],[362.3333282470703,240.33333206176758],[359.3333282470703,240.33333206176758],[356.3333282470703,240.33333206176758],[351.3333282470703,240.33333206176758],[347.3333282470703,240.33333206176758],[341.3333282470703,240.33333206176758],[338.3333282470703,240.33333206176758],[336.3333282470703,240.33333206176758],[335.3333282470703,240.33333206176758],[334.3333282470703,240.33333206176758],[333.3333282470703,240.33333206176758],[331.3333282470703,240.33333206176758],[331.3333282470703,240.33333206176758],[329.3333282470703,240.33333206176758],[328.3333282470703,240.33333206176758],[327.3333282470703,240.33333206176758],[327.3333282470703,239.33333206176758],[328.3333282470703,239.33333206176758],[329.3333282470703,239.33333206176758],[329.3333282470703,238.33333206176758],[331.3333282470703,238.33333206176758],[337.3333282470703,238.33333206176758],[345.3333282470703,237.33333206176758],[353.3333282470703,237.33333206176758],[357.3333282470703,237.33333206176758],[361.3333282470703,237.33333206176758],[363.3333282470703,237.33333206176758],[364.3333282470703,237.33333206176758],[365.3333282470703,237.33333206176758],[367.3333282470703,237.33333206176758],[370.3333282470703,237.33333206176758],[372.3333282470703,237.33333206176758],[373.3333282470703,237.33333206176758],[375.3333282470703,237.33333206176758],[377.3333282470703,237.33333206176758],[378.3333282470703,237.33333206176758],[379.3333282470703,237.33333206176758],[381.3333282470703,237.33333206176758],[381.3333282470703,237.33333206176758],[383.3333282470703,237.33333206176758],[385.3333282470703,237.33333206176758],[386.3333282470703,237.33333206176758],[386.3333282470703,236.33333206176758],[387.3333282470703,236.33333206176758],[387.3333282470703,236.33333206176758],[383.3333282470703,234.33333206176758],[379.3333282470703,234.33333206176758],[376.3333282470703,233.33333206176758],[370.3333282470703,231.33333206176758],[367.3333282470703,231.33333206176758],[362.3333282470703,231.33333206176758],[357.3333282470703,231.33333206176758],[351.3333282470703,231.33333206176758],[347.3333282470703,231.33333206176758],[343.3333282470703,231.33333206176758],[339.3333282470703,231.33333206176758],[338.3333282470703,231.33333206176758],[337.3333282470703,231.33333206176758],[337.3333282470703,231.33333206176758],[334.3333282470703,231.33333206176758],[331.3333282470703,231.33333206176758],[330.3333282470703,231.33333206176758],[329.3333282470703,231.33333206176758],[330.3333282470703,231.33333206176758],[332.3333282470703,231.33333206176758],[335.3333282470703,231.33333206176758],[346.3333282470703,230.33333206176758],[356.3333282470703,230.33333206176758],[363.3333282470703,230.33333206176758],[369.3333282470703,230.33333206176758],[376.3333282470703,230.33333206176758],[381.3333282470703,230.33333206176758],[385.3333282470703,230.33333206176758],[389.3333282470703,230.33333206176758],[392.3333282470703,230.33333206176758],[397.3333282470703,230.33333206176758],[401.3333282470703,230.33333206176758],[405.3333282470703,230.33333206176758],[407.3333282470703,230.33333206176758],[409.3333282470703,230.33333206176758],[411.3333282470703,230.33333206176758],[409.3333282470703,230.33333206176758],[409.3333282470703,230.33333206176758],[404.3333282470703,230.33333206176758],[401.3333282470703,230.33333206176758],[396.3333282470703,230.33333206176758],[393.3333282470703,230.33333206176758],[389.3333282470703,230.33333206176758],[387.3333282470703,229.33333206176758],[383.3333282470703,228.33333206176758],[380.3333282470703,228.33333206176758],[379.3333282470703,228.33333206176758],[376.3333282470703,227.33333206176758],[373.3333282470703,227.33333206176758],[370.3333282470703,227.33333206176758],[367.3333282470703,227.33333206176758],[365.3333282470703,227.33333206176758],[362.3333282470703,226.33333206176758],[360.3333282470703,226.33333206176758],[359.3333282470703,226.33333206176758],[357.3333282470703,226.33333206176758],[355.3333282470703,226.33333206176758],[354.3333282470703,226.33333206176758],[353.3333282470703,226.33333206176758],[352.3333282470703,225.33333206176758],[349.3333282470703,225.33333206176758],[346.3333282470703,224.33333206176758],[345.3333282470703,224.33333206176758],[343.3333282470703,224.33333206176758],[340.3333282470703,223.33333206176758],[338.3333282470703,223.33333206176758],[335.3333282470703,223.33333206176758],[331.3333282470703,223.33333206176758],[327.3333282470703,223.33333206176758],[321.3333282470703,223.33333206176758],[319.3333282470703,223.33333206176758],[317.3333282470703,223.33333206176758],[317.3333282470703,223.33333206176758],[317.3333282470703,223.33333206176758],[317.3333282470703,224.33333206176758],[318.3333282470703,224.33333206176758],[318.3333282470703,225.33333206176758],[319.3333282470703,226.33333206176758],[321.3333282470703,226.33333206176758],[323.3333282470703,227.33333206176758],[325.3333282470703,229.33333206176758],[327.3333282470703,231.33333206176758],[327.3333282470703,232.33333206176758],[327.3333282470703,234.33333206176758],[327.3333282470703,235.33333206176758],[327.3333282470703,236.33333206176758],[327.3333282470703,237.33333206176758],[327.3333282470703,238.33333206176758],[327.3333282470703,239.33333206176758],[327.3333282470703,240.33333206176758],[327.3333282470703,242.33333206176758],[326.3333282470703,243.33333206176758],[325.3333282470703,244.33333206176758],[325.3333282470703,244.33333206176758],[325.3333282470703,245.33333206176758],[325.3333282470703,248.33333206176758],[325.3333282470703,250.33333206176758],[324.3333282470703,252.33333206176758],[323.3333282470703,254.33333206176758],[323.3333282470703,255.33333206176758],[323.3333282470703,257.3333320617676],[323.3333282470703,259.3333320617676],[323.3333282470703,260.3333320617676],[323.3333282470703,260.3333320617676],[323.3333282470703,261.3333320617676],[323.3333282470703,262.3333320617676],[324.3333282470703,262.3333320617676],[325.3333282470703,262.3333320617676],[325.3333282470703,262.3333320617676],[328.3333282470703,262.3333320617676],[332.3333282470703,262.3333320617676],[337.3333282470703,262.3333320617676],[341.3333282470703,262.3333320617676],[345.3333282470703,262.3333320617676],[349.3333282470703,262.3333320617676],[351.3333282470703,262.3333320617676],[353.3333282470703,262.3333320617676],[359.3333282470703,263.3333320617676],[367.3333282470703,264.3333320617676],[377.3333282470703,264.3333320617676],[386.3333282470703,264.3333320617676],[389.3333282470703,264.3333320617676],[390.3333282470703,264.3333320617676],[391.3333282470703,264.3333320617676],[393.3333282470703,264.3333320617676],[393.3333282470703,264.3333320617676]]},{\"color\":\"#b84747\",\"size\":\"24\",\"width\":480,\"height\":480,\"stroke\":[[323.3333282470703,277.3333320617676],[323.3333282470703,278.3333320617676],[323.3333282470703,278.3333320617676],[325.3333282470703,279.3333320617676],[326.3333282470703,279.3333320617676],[327.3333282470703,280.3333320617676],[330.3333282470703,280.3333320617676],[333.3333282470703,281.3333320617676],[335.3333282470703,281.3333320617676],[337.3333282470703,281.3333320617676],[338.3333282470703,281.3333320617676],[339.3333282470703,282.3333320617676],[341.3333282470703,282.3333320617676],[345.3333282470703,282.3333320617676],[350.3333282470703,282.3333320617676],[354.3333282470703,282.3333320617676],[357.3333282470703,282.3333320617676],[357.3333282470703,282.3333320617676],[358.3333282470703,282.3333320617676],[359.3333282470703,282.3333320617676],[361.3333282470703,282.3333320617676],[363.3333282470703,282.3333320617676],[365.3333282470703,281.3333320617676],[366.3333282470703,281.3333320617676],[367.3333282470703,281.3333320617676],[368.3333282470703,281.3333320617676],[371.3333282470703,281.3333320617676],[373.3333282470703,281.3333320617676],[376.3333282470703,281.3333320617676],[377.3333282470703,280.3333320617676],[378.3333282470703,280.3333320617676],[379.3333282470703,280.3333320617676],[379.3333282470703,280.3333320617676],[380.3333282470703,280.3333320617676],[381.3333282470703,280.3333320617676],[383.3333282470703,280.3333320617676],[386.3333282470703,279.3333320617676],[387.3333282470703,279.3333320617676],[388.3333282470703,279.3333320617676],[389.3333282470703,279.3333320617676],[389.3333282470703,279.3333320617676],[391.3333282470703,279.3333320617676],[392.3333282470703,280.3333320617676],[393.3333282470703,280.3333320617676],[393.3333282470703,280.3333320617676]]},{\"color\":\"#b84747\",\"size\":\"24\",\"width\":480,\"height\":480,\"stroke\":[[393.3333282470703,280.3333320617676]]},{\"color\":\"#0af5f5\",\"size\":\"24\",\"width\":480,\"height\":480,\"stroke\":[[309.3333282470703,102.33333206176758],[309.3333282470703,102.33333206176758],[310.3333282470703,102.33333206176758],[311.3333282470703,102.33333206176758],[317.3333282470703,102.33333206176758],[321.3333282470703,102.33333206176758],[325.3333282470703,102.33333206176758],[326.3333282470703,102.33333206176758],[328.3333282470703,102.33333206176758],[329.3333282470703,102.33333206176758],[330.3333282470703,102.33333206176758],[331.3333282470703,102.33333206176758],[331.3333282470703,102.33333206176758],[332.3333282470703,102.33333206176758],[333.3333282470703,102.33333206176758],[333.3333282470703,102.33333206176758],[334.3333282470703,102.33333206176758],[335.3333282470703,102.33333206176758],[335.3333282470703,102.33333206176758],[337.3333282470703,102.33333206176758],[340.3333282470703,103.33333206176758],[341.3333282470703,104.33333206176758],[343.3333282470703,104.33333206176758],[345.3333282470703,104.33333206176758],[346.3333282470703,104.33333206176758],[348.3333282470703,104.33333206176758],[351.3333282470703,104.33333206176758],[353.3333282470703,104.33333206176758],[354.3333282470703,104.33333206176758],[358.3333282470703,104.33333206176758],[360.3333282470703,105.33333206176758],[363.3333282470703,105.33333206176758],[366.3333282470703,105.33333206176758],[367.3333282470703,105.33333206176758],[369.3333282470703,105.33333206176758],[370.3333282470703,105.33333206176758],[371.3333282470703,105.33333206176758],[372.3333282470703,105.33333206176758],[375.3333282470703,105.33333206176758],[377.3333282470703,105.33333206176758],[378.3333282470703,105.33333206176758],[379.3333282470703,105.33333206176758],[381.3333282470703,105.33333206176758],[381.3333282470703,105.33333206176758],[382.3333282470703,105.33333206176758],[383.3333282470703,105.33333206176758],[384.3333282470703,105.33333206176758],[386.3333282470703,105.33333206176758],[387.3333282470703,105.33333206176758],[387.3333282470703,105.33333206176758],[391.3333282470703,105.33333206176758],[393.3333282470703,105.33333206176758],[395.3333282470703,105.33333206176758],[396.3333282470703,105.33333206176758],[398.3333282470703,105.33333206176758],[399.3333282470703,105.33333206176758],[401.3333282470703,105.33333206176758],[403.3333282470703,105.33333206176758],[403.3333282470703,105.33333206176758],[404.3333282470703,105.33333206176758],[405.3333282470703,105.33333206176758],[407.3333282470703,105.33333206176758],[407.3333282470703,105.33333206176758],[405.3333282470703,105.33333206176758],[403.3333282470703,105.33333206176758],[399.3333282470703,104.33333206176758],[397.3333282470703,104.33333206176758],[394.3333282470703,103.33333206176758],[391.3333282470703,103.33333206176758],[389.3333282470703,103.33333206176758],[388.3333282470703,103.33333206176758],[387.3333282470703,103.33333206176758],[384.3333282470703,103.33333206176758],[381.3333282470703,103.33333206176758],[377.3333282470703,103.33333206176758],[373.3333282470703,103.33333206176758],[371.3333282470703,103.33333206176758],[369.3333282470703,103.33333206176758],[364.3333282470703,103.33333206176758],[361.3333282470703,103.33333206176758],[357.3333282470703,103.33333206176758],[354.3333282470703,103.33333206176758],[349.3333282470703,102.33333206176758],[347.3333282470703,102.33333206176758],[343.3333282470703,103.33333206176758],[341.3333282470703,103.33333206176758],[340.3333282470703,103.33333206176758],[335.3333282470703,104.33333206176758],[330.3333282470703,104.33333206176758],[327.3333282470703,105.33333206176758],[324.3333282470703,105.33333206176758],[321.3333282470703,106.33333206176758],[315.3333282470703,107.33333206176758],[309.3333282470703,108.33333206176758],[305.3333282470703,109.33333206176758],[301.3333282470703,110.33333206176758],[298.3333282470703,110.33333206176758],[296.3333282470703,110.33333206176758],[295.3333282470703,111.33333206176758],[294.3333282470703,111.33333206176758],[293.3333282470703,111.33333206176758],[293.3333282470703,112.33333206176758],[292.3333282470703,112.33333206176758],[292.3333282470703,113.33333206176758],[292.3333282470703,114.33333206176758],[293.3333282470703,114.33333206176758],[295.3333282470703,116.33333206176758],[297.3333282470703,116.33333206176758],[303.3333282470703,116.33333206176758],[305.3333282470703,117.33333206176758],[308.3333282470703,117.33333206176758],[311.3333282470703,117.33333206176758],[312.3333282470703,117.33333206176758],[314.3333282470703,118.33333206176758],[317.3333282470703,118.33333206176758],[319.3333282470703,118.33333206176758],[321.3333282470703,118.33333206176758],[323.3333282470703,118.33333206176758],[325.3333282470703,119.33333206176758],[327.3333282470703,119.33333206176758],[330.3333282470703,119.33333206176758],[334.3333282470703,119.33333206176758],[335.3333282470703,119.33333206176758],[337.3333282470703,119.33333206176758],[339.3333282470703,118.33333206176758],[344.3333282470703,118.33333206176758],[351.3333282470703,118.33333206176758],[356.3333282470703,118.33333206176758],[361.3333282470703,118.33333206176758],[364.3333282470703,118.33333206176758],[367.3333282470703,118.33333206176758],[369.3333282470703,120.33333206176758],[370.3333282470703,120.33333206176758],[372.3333282470703,119.33333206176758],[373.3333282470703,119.33333206176758],[376.3333282470703,119.33333206176758],[377.3333282470703,119.33333206176758],[381.3333282470703,119.33333206176758],[382.3333282470703,119.33333206176758],[384.3333282470703,119.33333206176758],[385.3333282470703,119.33333206176758],[387.3333282470703,120.33333206176758],[389.3333282470703,120.33333206176758],[393.3333282470703,120.33333206176758],[395.3333282470703,120.33333206176758],[397.3333282470703,120.33333206176758],[397.3333282470703,120.33333206176758],[398.3333282470703,120.33333206176758],[399.3333282470703,120.33333206176758],[399.3333282470703,120.33333206176758],[401.3333282470703,120.33333206176758],[401.3333282470703,120.33333206176758],[402.3333282470703,120.33333206176758],[403.3333282470703,120.33333206176758],[404.3333282470703,120.33333206176758],[405.3333282470703,120.33333206176758],[405.3333282470703,120.33333206176758],[406.3333282470703,120.33333206176758],[407.3333282470703,120.33333206176758],[407.3333282470703,120.33333206176758],[408.3333282470703,120.33333206176758],[407.3333282470703,120.33333206176758],[405.3333282470703,121.33333206176758],[401.3333282470703,122.33333206176758],[387.3333282470703,124.33333206176758],[380.3333282470703,124.33333206176758],[374.3333282470703,126.33333206176758],[365.3333282470703,126.33333206176758],[361.3333282470703,126.33333206176758],[358.3333282470703,126.33333206176758],[355.3333282470703,126.33333206176758],[353.3333282470703,126.33333206176758],[349.3333282470703,127.33333206176758],[345.3333282470703,128.33333206176758],[343.3333282470703,128.33333206176758],[339.3333282470703,128.33333206176758],[334.3333282470703,129.33333206176758],[329.3333282470703,129.33333206176758],[323.3333282470703,129.33333206176758],[315.3333282470703,129.33333206176758],[311.3333282470703,129.33333206176758],[307.3333282470703,129.33333206176758],[305.3333282470703,129.33333206176758],[303.3333282470703,129.33333206176758],[302.3333282470703,129.33333206176758],[301.3333282470703,129.33333206176758],[301.3333282470703,130.33333206176758],[299.3333282470703,130.33333206176758],[297.3333282470703,130.33333206176758],[297.3333282470703,131.33333206176758],[298.3333282470703,132.33333206176758],[301.3333282470703,132.33333206176758],[311.3333282470703,132.33333206176758],[318.3333282470703,132.33333206176758],[329.3333282470703,132.33333206176758],[339.3333282470703,132.33333206176758],[345.3333282470703,132.33333206176758],[351.3333282470703,132.33333206176758],[354.3333282470703,132.33333206176758],[359.3333282470703,132.33333206176758],[364.3333282470703,133.33333206176758],[369.3333282470703,133.33333206176758],[375.3333282470703,133.33333206176758],[380.3333282470703,133.33333206176758],[384.3333282470703,133.33333206176758],[391.3333282470703,136.33333206176758],[393.3333282470703,136.33333206176758],[397.3333282470703,136.33333206176758],[401.3333282470703,136.33333206176758],[405.3333282470703,136.33333206176758],[408.3333282470703,136.33333206176758],[410.3333282470703,136.33333206176758],[411.3333282470703,136.33333206176758],[411.3333282470703,136.33333206176758],[412.3333282470703,137.33333206176758],[411.3333282470703,138.33333206176758],[409.3333282470703,138.33333206176758],[405.3333282470703,138.33333206176758],[400.3333282470703,139.33333206176758],[393.3333282470703,139.33333206176758],[385.3333282470703,140.33333206176758],[380.3333282470703,140.33333206176758],[377.3333282470703,140.33333206176758],[374.3333282470703,140.33333206176758],[372.3333282470703,140.33333206176758],[371.3333282470703,141.33333206176758],[367.3333282470703,142.33333206176758],[363.3333282470703,142.33333206176758],[356.3333282470703,142.33333206176758],[350.3333282470703,142.33333206176758],[348.3333282470703,142.33333206176758],[347.3333282470703,142.33333206176758],[344.3333282470703,142.33333206176758],[343.3333282470703,142.33333206176758],[339.3333282470703,142.33333206176758],[335.3333282470703,142.33333206176758],[329.3333282470703,142.33333206176758],[326.3333282470703,141.33333206176758],[322.3333282470703,140.33333206176758],[319.3333282470703,140.33333206176758],[317.3333282470703,140.33333206176758],[315.3333282470703,140.33333206176758],[313.3333282470703,141.33333206176758],[312.3333282470703,141.33333206176758],[311.3333282470703,141.33333206176758],[311.3333282470703,142.33333206176758],[311.3333282470703,144.33333206176758],[311.3333282470703,148.33333206176758],[311.3333282470703,149.33333206176758],[312.3333282470703,152.33333206176758],[313.3333282470703,154.33333206176758],[314.3333282470703,158.33333206176758],[315.3333282470703,160.33333206176758],[315.3333282470703,163.33333206176758],[315.3333282470703,164.33333206176758],[315.3333282470703,165.33333206176758],[315.3333282470703,166.33333206176758],[315.3333282470703,167.33333206176758],[315.3333282470703,168.33333206176758],[315.3333282470703,170.33333206176758],[315.3333282470703,172.33333206176758],[315.3333282470703,174.33333206176758],[314.3333282470703,176.33333206176758],[313.3333282470703,180.33333206176758],[313.3333282470703,182.33333206176758],[313.3333282470703,184.33333206176758],[312.3333282470703,184.33333206176758],[312.3333282470703,186.33333206176758],[312.3333282470703,186.33333206176758],[312.3333282470703,188.33333206176758],[312.3333282470703,188.33333206176758],[311.3333282470703,190.33333206176758],[310.3333282470703,193.33333206176758],[309.3333282470703,196.33333206176758],[309.3333282470703,199.33333206176758],[308.3333282470703,201.33333206176758],[307.3333282470703,202.33333206176758],[307.3333282470703,204.33333206176758],[307.3333282470703,204.33333206176758],[307.3333282470703,206.33333206176758],[306.3333282470703,208.33333206176758],[305.3333282470703,212.33333206176758],[304.3333282470703,214.33333206176758],[303.3333282470703,216.33333206176758],[302.3333282470703,218.33333206176758],[301.3333282470703,220.33333206176758],[301.3333282470703,222.33333206176758],[299.3333282470703,223.33333206176758],[299.3333282470703,225.33333206176758],[299.3333282470703,226.33333206176758],[299.3333282470703,228.33333206176758],[299.3333282470703,230.33333206176758],[298.3333282470703,232.33333206176758],[297.3333282470703,234.33333206176758],[296.3333282470703,235.33333206176758],[296.3333282470703,228.33333206176758],[296.3333282470703,224.33333206176758],[296.3333282470703,222.33333206176758],[297.3333282470703,212.33333206176758],[297.3333282470703,198.33333206176758],[297.3333282470703,188.33333206176758],[297.3333282470703,171.33333206176758],[297.3333282470703,159.33333206176758],[297.3333282470703,146.33333206176758],[299.3333282470703,136.33333206176758],[303.3333282470703,131.33333206176758],[305.3333282470703,122.33333206176758],[311.3333282470703,114.33333206176758],[315.3333282470703,108.33333206176758],[321.3333282470703,100.33333206176758],[327.3333282470703,93.33333206176758],[333.3333282470703,86.33333206176758],[339.3333282470703,79.33333206176758],[341.3333282470703,77.33333206176758],[342.3333282470703,76.33333206176758],[343.3333282470703,76.33333206176758],[343.3333282470703,76.33333206176758],[347.3333282470703,78.33333206176758],[353.3333282470703,82.33333206176758],[355.3333282470703,85.33333206176758],[365.3333282470703,90.33333206176758],[370.3333282470703,92.33333206176758],[375.3333282470703,96.33333206176758],[378.3333282470703,100.33333206176758],[381.3333282470703,104.33333206176758],[384.3333282470703,108.33333206176758],[385.3333282470703,110.33333206176758],[386.3333282470703,116.33333206176758],[389.3333282470703,121.33333206176758],[390.3333282470703,128.33333206176758],[391.3333282470703,132.33333206176758],[391.3333282470703,134.33333206176758],[392.3333282470703,139.33333206176758],[393.3333282470703,142.33333206176758],[393.3333282470703,145.33333206176758],[393.3333282470703,147.33333206176758],[394.3333282470703,148.33333206176758],[395.3333282470703,150.33333206176758],[395.3333282470703,153.33333206176758],[396.3333282470703,155.33333206176758],[396.3333282470703,157.33333206176758],[396.3333282470703,159.33333206176758],[397.3333282470703,160.33333206176758],[398.3333282470703,162.33333206176758],[399.3333282470703,162.33333206176758],[399.3333282470703,164.33333206176758],[399.3333282470703,166.33333206176758],[401.3333282470703,170.33333206176758],[402.3333282470703,172.33333206176758],[403.3333282470703,174.33333206176758],[404.3333282470703,176.33333206176758],[405.3333282470703,178.33333206176758],[405.3333282470703,180.33333206176758],[406.3333282470703,182.33333206176758],[408.3333282470703,186.33333206176758],[409.3333282470703,190.33333206176758],[410.3333282470703,192.33333206176758],[411.3333282470703,194.33333206176758],[412.3333282470703,197.33333206176758],[413.3333282470703,199.33333206176758],[414.3333282470703,200.33333206176758],[415.3333282470703,201.33333206176758],[415.3333282470703,202.33333206176758],[415.3333282470703,202.33333206176758],[416.3333282470703,203.33333206176758],[417.3333282470703,203.33333206176758],[417.3333282470703,204.33333206176758],[417.3333282470703,203.33333206176758],[417.3333282470703,196.33333206176758],[418.3333282470703,192.33333206176758],[418.3333282470703,184.33333206176758],[418.3333282470703,177.33333206176758],[417.3333282470703,171.33333206176758],[416.3333282470703,165.33333206176758],[416.3333282470703,164.33333206176758],[416.3333282470703,164.33333206176758],[415.3333282470703,162.33333206176758],[415.3333282470703,160.33333206176758],[414.3333282470703,156.33333206176758],[413.3333282470703,152.33333206176758],[412.3333282470703,149.33333206176758],[412.3333282470703,148.33333206176758],[412.3333282470703,148.33333206176758],[411.3333282470703,146.33333206176758],[411.3333282470703,144.33333206176758],[411.3333282470703,142.33333206176758],[411.3333282470703,141.33333206176758],[411.3333282470703,140.33333206176758]]},{\"color\":\"#dc2323\",\"size\":\"24\",\"width\":480,\"height\":480,\"stroke\":[[338.3333282470703,282.3333320617676],[338.3333282470703,283.3333320617676],[338.3333282470703,284.3333320617676],[338.3333282470703,285.3333320617676],[338.3333282470703,288.3333320617676],[338.3333282470703,291.3333320617676],[338.3333282470703,294.3333320617676],[338.3333282470703,299.3333320617676],[339.3333282470703,304.3333320617676],[340.3333282470703,311.3333320617676],[341.3333282470703,315.3333320617676],[341.3333282470703,319.3333320617676],[341.3333282470703,322.3333320617676],[341.3333282470703,324.3333320617676],[342.3333282470703,327.3333320617676],[343.3333282470703,332.3333320617676],[343.3333282470703,336.3333320617676],[343.3333282470703,340.3333320617676],[343.3333282470703,342.3333320617676],[343.3333282470703,344.3333320617676],[343.3333282470703,346.3333320617676],[343.3333282470703,346.3333320617676],[343.3333282470703,347.3333320617676],[343.3333282470703,349.3333320617676],[343.3333282470703,351.3333320617676],[344.3333282470703,354.3333320617676],[344.3333282470703,356.3333320617676],[345.3333282470703,361.3333320617676],[345.3333282470703,364.3333320617676],[345.3333282470703,366.3333320617676],[346.3333282470703,369.3333320617676],[346.3333282470703,370.3333320617676],[346.3333282470703,372.3333320617676],[347.3333282470703,374.3333320617676],[347.3333282470703,377.3333320617676],[347.3333282470703,381.3333320617676],[347.3333282470703,384.3333320617676],[347.3333282470703,388.3333320617676],[347.3333282470703,390.3333320617676],[348.3333282470703,392.3333320617676],[348.3333282470703,393.3333320617676],[348.3333282470703,395.3333320617676],[348.3333282470703,397.3333320617676],[348.3333282470703,398.3333320617676],[348.3333282470703,400.3333320617676],[349.3333282470703,402.3333320617676],[349.3333282470703,404.3333320617676],[349.3333282470703,405.3333320617676],[349.3333282470703,407.3333320617676],[349.3333282470703,408.3333320617676],[349.3333282470703,409.3333320617676],[349.3333282470703,410.3333320617676],[349.3333282470703,412.3333320617676],[349.3333282470703,413.3333320617676],[349.3333282470703,414.3333320617676],[349.3333282470703,416.3333320617676],[349.3333282470703,416.3333320617676],[349.3333282470703,418.3333320617676],[349.3333282470703,419.3333320617676],[349.3333282470703,420.3333320617676],[348.3333282470703,420.3333320617676],[347.3333282470703,422.3333320617676],[347.3333282470703,424.3333320617676],[347.3333282470703,427.3333320617676],[347.3333282470703,428.3333320617676],[347.3333282470703,430.3333320617676],[347.3333282470703,430.3333320617676],[347.3333282470703,431.3333320617676],[347.3333282470703,432.3333320617676],[347.3333282470703,432.3333320617676],[347.3333282470703,434.3333320617676],[347.3333282470703,435.3333320617676],[346.3333282470703,436.3333320617676],[345.3333282470703,436.3333320617676],[345.3333282470703,438.3333320617676],[345.3333282470703,439.3333320617676],[345.3333282470703,440.3333320617676],[345.3333282470703,440.3333320617676],[345.3333282470703,441.3333320617676],[345.3333282470703,442.3333320617676],[345.3333282470703,442.3333320617676],[345.3333282470703,443.3333320617676],[345.3333282470703,443.3333320617676],[345.3333282470703,444.3333320617676],[345.3333282470703,445.3333320617676],[344.3333282470703,446.3333320617676],[344.3333282470703,446.3333320617676],[343.3333282470703,447.3333320617676],[343.3333282470703,448.3333320617676],[343.3333282470703,449.3333320617676],[343.3333282470703,450.3333320617676],[343.3333282470703,452.3333320617676],[341.3333282470703,454.3333320617676],[341.3333282470703,456.3333320617676],[339.3333282470703,457.3333320617676],[339.3333282470703,458.3333320617676],[337.3333282470703,460.3333320617676],[336.3333282470703,461.3333320617676],[336.3333282470703,462.3333320617676],[336.3333282470703,463.3333320617676],[335.3333282470703,463.3333320617676],[335.3333282470703,464.3333320617676],[335.3333282470703,464.3333320617676],[335.3333282470703,465.3333320617676],[335.3333282470703,466.3333320617676],[335.3333282470703,467.3333320617676],[335.3333282470703,468.3333320617676],[335.3333282470703,469.3333320617676],[335.3333282470703,468.3333320617676],[336.3333282470703,466.3333320617676],[336.3333282470703,465.3333320617676],[336.3333282470703,461.3333320617676],[337.3333282470703,454.3333320617676],[339.3333282470703,448.3333320617676],[342.3333282470703,438.3333320617676],[343.3333282470703,428.3333320617676],[344.3333282470703,422.3333320617676],[344.3333282470703,417.3333320617676],[344.3333282470703,414.3333320617676],[343.3333282470703,410.3333320617676],[343.3333282470703,405.3333320617676],[343.3333282470703,404.3333320617676],[344.3333282470703,401.3333320617676],[345.3333282470703,396.3333320617676],[345.3333282470703,393.3333320617676],[345.3333282470703,390.3333320617676],[345.3333282470703,389.3333320617676],[345.3333282470703,388.3333320617676],[345.3333282470703,388.3333320617676],[345.3333282470703,387.3333320617676],[345.3333282470703,386.3333320617676],[345.3333282470703,385.3333320617676],[343.3333282470703,382.3333320617676],[343.3333282470703,378.3333320617676],[341.3333282470703,376.3333320617676],[341.3333282470703,374.3333320617676],[341.3333282470703,373.3333320617676],[341.3333282470703,372.3333320617676],[341.3333282470703,371.3333320617676],[341.3333282470703,370.3333320617676],[341.3333282470703,368.3333320617676],[341.3333282470703,367.3333320617676],[341.3333282470703,366.3333320617676],[341.3333282470703,364.3333320617676],[341.3333282470703,363.3333320617676],[341.3333282470703,362.3333320617676],[341.3333282470703,360.3333320617676],[341.3333282470703,358.3333320617676],[341.3333282470703,356.3333320617676],[341.3333282470703,350.3333320617676],[341.3333282470703,347.3333320617676],[341.3333282470703,342.3333320617676],[342.3333282470703,340.3333320617676],[342.3333282470703,338.3333320617676],[342.3333282470703,338.3333320617676]]},{\"color\":\"#dc2323\",\"size\":\"24\",\"width\":480,\"height\":480,\"stroke\":[[375.3333282470703,278.3333320617676],[375.3333282470703,279.3333320617676],[375.3333282470703,280.3333320617676],[375.3333282470703,283.3333320617676],[375.3333282470703,286.3333320617676],[375.3333282470703,289.3333320617676],[377.3333282470703,295.3333320617676],[377.3333282470703,298.3333320617676],[378.3333282470703,303.3333320617676],[379.3333282470703,306.3333320617676],[379.3333282470703,310.3333320617676],[379.3333282470703,315.3333320617676],[379.3333282470703,320.3333320617676],[379.3333282470703,325.3333320617676],[379.3333282470703,330.3333320617676],[379.3333282470703,336.3333320617676],[377.3333282470703,340.3333320617676],[377.3333282470703,342.3333320617676],[377.3333282470703,344.3333320617676],[377.3333282470703,346.3333320617676],[377.3333282470703,348.3333320617676],[377.3333282470703,349.3333320617676],[377.3333282470703,352.3333320617676],[376.3333282470703,354.3333320617676],[376.3333282470703,356.3333320617676],[376.3333282470703,358.3333320617676],[376.3333282470703,360.3333320617676],[375.3333282470703,364.3333320617676],[375.3333282470703,366.3333320617676],[375.3333282470703,368.3333320617676],[375.3333282470703,372.3333320617676],[376.3333282470703,374.3333320617676],[377.3333282470703,378.3333320617676],[377.3333282470703,380.3333320617676],[377.3333282470703,383.3333320617676],[377.3333282470703,385.3333320617676],[377.3333282470703,388.3333320617676],[377.3333282470703,390.3333320617676],[377.3333282470703,392.3333320617676],[377.3333282470703,394.3333320617676],[377.3333282470703,396.3333320617676],[377.3333282470703,399.3333320617676],[377.3333282470703,402.3333320617676],[377.3333282470703,404.3333320617676],[375.3333282470703,408.3333320617676],[375.3333282470703,413.3333320617676],[375.3333282470703,416.3333320617676],[375.3333282470703,418.3333320617676],[375.3333282470703,420.3333320617676],[375.3333282470703,422.3333320617676],[375.3333282470703,424.3333320617676],[375.3333282470703,426.3333320617676],[375.3333282470703,429.3333320617676],[375.3333282470703,432.3333320617676],[375.3333282470703,433.3333320617676],[375.3333282470703,436.3333320617676],[375.3333282470703,437.3333320617676],[375.3333282470703,438.3333320617676],[375.3333282470703,440.3333320617676],[375.3333282470703,442.3333320617676],[376.3333282470703,443.3333320617676],[377.3333282470703,445.3333320617676],[378.3333282470703,448.3333320617676],[379.3333282470703,449.3333320617676],[381.3333282470703,450.3333320617676],[381.3333282470703,451.3333320617676],[381.3333282470703,452.3333320617676],[382.3333282470703,452.3333320617676],[383.3333282470703,453.3333320617676],[383.3333282470703,454.3333320617676],[384.3333282470703,456.3333320617676],[385.3333282470703,458.3333320617676],[385.3333282470703,459.3333320617676],[387.3333282470703,460.3333320617676],[387.3333282470703,460.3333320617676],[389.3333282470703,462.3333320617676],[389.3333282470703,462.3333320617676],[389.3333282470703,462.3333320617676],[389.3333282470703,463.3333320617676],[389.3333282470703,464.3333320617676],[389.3333282470703,464.3333320617676],[389.3333282470703,466.3333320617676],[391.3333282470703,468.3333320617676],[392.3333282470703,469.3333320617676],[393.3333282470703,471.3333320617676],[393.3333282470703,472.3333320617676],[393.3333282470703,472.3333320617676],[394.3333282470703,471.3333320617676],[395.3333282470703,471.3333320617676],[395.3333282470703,470.3333320617676],[395.3333282470703,470.3333320617676],[395.3333282470703,469.3333320617676],[397.3333282470703,468.3333320617676],[397.3333282470703,467.3333320617676],[397.3333282470703,466.3333320617676],[397.3333282470703,466.3333320617676],[397.3333282470703,465.3333320617676],[397.3333282470703,464.3333320617676],[398.3333282470703,463.3333320617676],[398.3333282470703,460.3333320617676],[398.3333282470703,458.3333320617676],[398.3333282470703,457.3333320617676],[398.3333282470703,456.3333320617676],[397.3333282470703,455.3333320617676],[395.3333282470703,452.3333320617676],[394.3333282470703,449.3333320617676],[394.3333282470703,446.3333320617676],[393.3333282470703,443.3333320617676],[393.3333282470703,440.3333320617676],[392.3333282470703,438.3333320617676]]},{\"color\":\"#06f9f9\",\"size\":\"24\",\"width\":480,\"height\":480,\"stroke\":[[287.3333282470703,239.33333206176758],[286.3333282470703,239.33333206176758],[286.3333282470703,240.33333206176758],[285.3333282470703,242.33333206176758],[285.3333282470703,244.33333206176758],[284.3333282470703,245.33333206176758],[283.3333282470703,246.33333206176758],[282.3333282470703,248.33333206176758],[281.3333282470703,251.33333206176758],[280.3333282470703,253.33333206176758],[280.3333282470703,254.33333206176758],[279.3333282470703,256.3333320617676],[279.3333282470703,257.3333320617676],[279.3333282470703,258.3333320617676],[278.3333282470703,258.3333320617676],[278.3333282470703,260.3333320617676],[278.3333282470703,262.3333320617676],[278.3333282470703,263.3333320617676],[278.3333282470703,264.3333320617676],[278.3333282470703,264.3333320617676],[278.3333282470703,265.3333320617676],[279.3333282470703,265.3333320617676],[279.3333282470703,265.3333320617676],[282.3333282470703,263.3333320617676],[283.3333282470703,261.3333320617676],[285.3333282470703,260.3333320617676],[286.3333282470703,258.3333320617676],[287.3333282470703,258.3333320617676],[287.3333282470703,256.3333320617676],[287.3333282470703,256.3333320617676],[287.3333282470703,255.33333206176758],[287.3333282470703,254.33333206176758],[287.3333282470703,253.33333206176758],[288.3333282470703,252.33333206176758],[288.3333282470703,252.33333206176758],[289.3333282470703,252.33333206176758],[289.3333282470703,253.33333206176758]]},{\"color\":\"#06f9f9\",\"size\":\"24\",\"width\":480,\"height\":480,\"stroke\":[[421.3333282470703,208.33333206176758],[421.3333282470703,209.33333206176758],[421.3333282470703,210.33333206176758],[422.3333282470703,213.33333206176758],[423.3333282470703,219.33333206176758],[426.3333282470703,226.33333206176758],[430.3333282470703,232.33333206176758],[431.3333282470703,237.33333206176758],[434.3333282470703,243.33333206176758],[436.3333282470703,248.33333206176758],[439.3333282470703,253.33333206176758],[441.3333282470703,258.3333320617676],[443.3333282470703,262.3333320617676],[445.3333282470703,265.3333320617676],[446.3333282470703,268.3333320617676],[447.3333282470703,270.3333320617676],[447.3333282470703,270.3333320617676],[447.3333282470703,272.3333320617676],[447.3333282470703,274.3333320617676],[447.3333282470703,275.3333320617676],[448.3333282470703,276.3333320617676],[445.3333282470703,276.3333320617676],[442.3333282470703,275.3333320617676],[439.3333282470703,274.3333320617676],[437.3333282470703,273.3333320617676],[431.3333282470703,269.3333320617676],[426.3333282470703,266.3333320617676],[424.3333282470703,266.3333320617676],[423.3333282470703,264.3333320617676],[422.3333282470703,263.3333320617676],[422.3333282470703,262.3333320617676],[422.3333282470703,262.3333320617676],[422.3333282470703,261.3333320617676],[422.3333282470703,260.3333320617676],[421.3333282470703,259.3333320617676],[421.3333282470703,258.3333320617676],[421.3333282470703,257.3333320617676],[421.3333282470703,255.33333206176758],[421.3333282470703,253.33333206176758],[422.3333282470703,252.33333206176758],[423.3333282470703,250.33333206176758],[423.3333282470703,249.33333206176758],[424.3333282470703,248.33333206176758],[425.3333282470703,248.33333206176758],[425.3333282470703,247.33333206176758],[425.3333282470703,246.33333206176758]]},{\"color\":\"#ef1010\",\"size\":\"24\",\"width\":480,\"height\":480,\"stroke\":[[326.3333282470703,114.33333206176758],[327.3333282470703,114.33333206176758],[327.3333282470703,114.33333206176758],[329.3333282470703,114.33333206176758],[334.3333282470703,115.33333206176758],[340.3333282470703,115.33333206176758],[341.3333282470703,116.33333206176758],[342.3333282470703,116.33333206176758],[343.3333282470703,116.33333206176758],[343.3333282470703,116.33333206176758],[345.3333282470703,116.33333206176758],[347.3333282470703,116.33333206176758],[351.3333282470703,117.33333206176758],[356.3333282470703,117.33333206176758],[361.3333282470703,118.33333206176758],[365.3333282470703,118.33333206176758],[366.3333282470703,118.33333206176758],[367.3333282470703,118.33333206176758],[369.3333282470703,118.33333206176758],[371.3333282470703,118.33333206176758],[372.3333282470703,118.33333206176758],[373.3333282470703,118.33333206176758],[375.3333282470703,119.33333206176758],[375.3333282470703,119.33333206176758],[376.3333282470703,119.33333206176758],[377.3333282470703,119.33333206176758],[379.3333282470703,119.33333206176758],[379.3333282470703,119.33333206176758],[377.3333282470703,120.33333206176758],[376.3333282470703,120.33333206176758],[364.3333282470703,120.33333206176758],[357.3333282470703,120.33333206176758],[349.3333282470703,122.33333206176758],[342.3333282470703,122.33333206176758],[335.3333282470703,122.33333206176758],[330.3333282470703,122.33333206176758],[327.3333282470703,122.33333206176758],[325.3333282470703,122.33333206176758],[325.3333282470703,122.33333206176758],[325.3333282470703,123.33333206176758],[325.3333282470703,124.33333206176758],[325.3333282470703,124.33333206176758],[325.3333282470703,125.33333206176758],[325.3333282470703,126.33333206176758],[325.3333282470703,126.33333206176758],[328.3333282470703,128.33333206176758],[340.3333282470703,130.33333206176758],[354.3333282470703,132.33333206176758],[365.3333282470703,133.33333206176758],[372.3333282470703,135.33333206176758],[375.3333282470703,136.33333206176758],[377.3333282470703,136.33333206176758],[377.3333282470703,136.33333206176758],[379.3333282470703,136.33333206176758],[382.3333282470703,137.33333206176758],[386.3333282470703,138.33333206176758],[391.3333282470703,138.33333206176758],[397.3333282470703,139.33333206176758],[399.3333282470703,141.33333206176758],[401.3333282470703,141.33333206176758],[401.3333282470703,142.33333206176758],[399.3333282470703,142.33333206176758],[391.3333282470703,143.33333206176758],[385.3333282470703,143.33333206176758],[379.3333282470703,143.33333206176758],[367.3333282470703,143.33333206176758],[355.3333282470703,142.33333206176758],[342.3333282470703,142.33333206176758],[336.3333282470703,142.33333206176758],[334.3333282470703,142.33333206176758],[332.3333282470703,142.33333206176758],[329.3333282470703,142.33333206176758],[327.3333282470703,142.33333206176758],[327.3333282470703,142.33333206176758],[325.3333282470703,142.33333206176758],[324.3333282470703,143.33333206176758],[325.3333282470703,143.33333206176758],[327.3333282470703,145.33333206176758],[330.3333282470703,146.33333206176758],[335.3333282470703,148.33333206176758],[343.3333282470703,150.33333206176758],[348.3333282470703,152.33333206176758],[353.3333282470703,153.33333206176758],[355.3333282470703,154.33333206176758],[357.3333282470703,155.33333206176758],[358.3333282470703,155.33333206176758],[358.3333282470703,156.33333206176758],[359.3333282470703,156.33333206176758],[360.3333282470703,157.33333206176758],[361.3333282470703,158.33333206176758],[361.3333282470703,159.33333206176758],[362.3333282470703,159.33333206176758],[364.3333282470703,160.33333206176758],[365.3333282470703,160.33333206176758],[367.3333282470703,160.33333206176758],[367.3333282470703,161.33333206176758],[365.3333282470703,162.33333206176758],[362.3333282470703,162.33333206176758],[358.3333282470703,162.33333206176758],[349.3333282470703,163.33333206176758],[344.3333282470703,165.33333206176758],[339.3333282470703,167.33333206176758],[336.3333282470703,168.33333206176758],[336.3333282470703,168.33333206176758],[336.3333282470703,169.33333206176758],[335.3333282470703,169.33333206176758],[335.3333282470703,170.33333206176758],[343.3333282470703,170.33333206176758],[362.3333282470703,172.33333206176758],[381.3333282470703,174.33333206176758],[391.3333282470703,176.33333206176758],[395.3333282470703,177.33333206176758],[396.3333282470703,178.33333206176758],[399.3333282470703,178.33333206176758],[401.3333282470703,178.33333206176758],[402.3333282470703,179.33333206176758],[401.3333282470703,179.33333206176758],[397.3333282470703,179.33333206176758],[393.3333282470703,179.33333206176758],[385.3333282470703,180.33333206176758],[382.3333282470703,180.33333206176758],[380.3333282470703,180.33333206176758],[378.3333282470703,180.33333206176758],[373.3333282470703,181.33333206176758],[366.3333282470703,182.33333206176758],[360.3333282470703,183.33333206176758],[356.3333282470703,184.33333206176758],[352.3333282470703,184.33333206176758],[349.3333282470703,184.33333206176758],[348.3333282470703,184.33333206176758],[347.3333282470703,184.33333206176758],[347.3333282470703,184.33333206176758],[347.3333282470703,185.33333206176758],[345.3333282470703,185.33333206176758],[345.3333282470703,186.33333206176758],[345.3333282470703,186.33333206176758],[345.3333282470703,188.33333206176758],[345.3333282470703,189.33333206176758],[345.3333282470703,190.33333206176758],[347.3333282470703,192.33333206176758],[351.3333282470703,192.33333206176758],[363.3333282470703,196.33333206176758],[377.3333282470703,197.33333206176758],[383.3333282470703,200.33333206176758],[385.3333282470703,202.33333206176758],[385.3333282470703,202.33333206176758],[381.3333282470703,202.33333206176758],[373.3333282470703,202.33333206176758],[369.3333282470703,202.33333206176758],[361.3333282470703,204.33333206176758],[355.3333282470703,204.33333206176758],[352.3333282470703,204.33333206176758],[349.3333282470703,204.33333206176758],[349.3333282470703,204.33333206176758],[348.3333282470703,204.33333206176758],[345.3333282470703,204.33333206176758],[335.3333282470703,204.33333206176758],[334.3333282470703,204.33333206176758],[333.3333282470703,204.33333206176758],[332.3333282470703,204.33333206176758],[332.3333282470703,204.33333206176758],[332.3333282470703,203.33333206176758],[332.3333282470703,202.33333206176758],[331.3333282470703,200.33333206176758],[330.3333282470703,198.33333206176758],[330.3333282470703,194.33333206176758],[330.3333282470703,193.33333206176758],[329.3333282470703,190.33333206176758],[328.3333282470703,186.33333206176758],[327.3333282470703,182.33333206176758],[327.3333282470703,176.33333206176758],[327.3333282470703,172.33333206176758],[327.3333282470703,164.33333206176758],[325.3333282470703,158.33333206176758],[325.3333282470703,153.33333206176758],[325.3333282470703,150.33333206176758],[324.3333282470703,147.33333206176758],[324.3333282470703,145.33333206176758],[324.3333282470703,144.33333206176758],[324.3333282470703,142.33333206176758],[324.3333282470703,140.33333206176758],[325.3333282470703,139.33333206176758],[327.3333282470703,136.33333206176758],[331.3333282470703,131.33333206176758],[335.3333282470703,127.33333206176758],[337.3333282470703,126.33333206176758],[339.3333282470703,124.33333206176758],[341.3333282470703,124.33333206176758],[343.3333282470703,124.33333206176758],[343.3333282470703,124.33333206176758],[347.3333282470703,124.33333206176758],[349.3333282470703,124.33333206176758],[353.3333282470703,126.33333206176758],[357.3333282470703,126.33333206176758],[364.3333282470703,131.33333206176758],[367.3333282470703,132.33333206176758],[368.3333282470703,132.33333206176758],[369.3333282470703,132.33333206176758],[371.3333282470703,133.33333206176758],[371.3333282470703,133.33333206176758],[372.3333282470703,134.33333206176758],[373.3333282470703,135.33333206176758],[373.3333282470703,136.33333206176758],[373.3333282470703,138.33333206176758],[375.3333282470703,143.33333206176758],[376.3333282470703,148.33333206176758],[377.3333282470703,152.33333206176758],[377.3333282470703,161.33333206176758],[377.3333282470703,165.33333206176758],[377.3333282470703,171.33333206176758],[377.3333282470703,174.33333206176758],[379.3333282470703,177.33333206176758],[379.3333282470703,179.33333206176758],[380.3333282470703,183.33333206176758],[380.3333282470703,186.33333206176758],[380.3333282470703,189.33333206176758],[380.3333282470703,190.33333206176758],[380.3333282470703,189.33333206176758],[380.3333282470703,186.33333206176758],[381.3333282470703,180.33333206176758],[382.3333282470703,172.33333206176758],[383.3333282470703,165.33333206176758],[383.3333282470703,160.33333206176758],[383.3333282470703,157.33333206176758],[385.3333282470703,153.33333206176758],[385.3333282470703,149.33333206176758],[385.3333282470703,146.33333206176758],[386.3333282470703,142.33333206176758],[387.3333282470703,140.33333206176758],[387.3333282470703,138.33333206176758],[387.3333282470703,137.33333206176758],[387.3333282470703,136.33333206176758],[387.3333282470703,134.33333206176758],[387.3333282470703,132.33333206176758],[388.3333282470703,129.33333206176758],[388.3333282470703,122.33333206176758],[389.3333282470703,121.33333206176758],[389.3333282470703,120.33333206176758],[390.3333282470703,119.33333206176758],[390.3333282470703,118.33333206176758],[390.3333282470703,117.33333206176758],[391.3333282470703,117.33333206176758],[391.3333282470703,119.33333206176758],[391.3333282470703,122.33333206176758],[391.3333282470703,130.33333206176758],[391.3333282470703,136.33333206176758],[391.3333282470703,140.33333206176758],[391.3333282470703,142.33333206176758],[392.3333282470703,144.33333206176758],[392.3333282470703,148.33333206176758],[393.3333282470703,154.33333206176758],[394.3333282470703,160.33333206176758],[394.3333282470703,167.33333206176758],[394.3333282470703,170.33333206176758],[394.3333282470703,174.33333206176758],[394.3333282470703,179.33333206176758],[394.3333282470703,182.33333206176758],[394.3333282470703,188.33333206176758],[394.3333282470703,189.33333206176758],[394.3333282470703,192.33333206176758],[394.3333282470703,194.33333206176758],[394.3333282470703,196.33333206176758],[394.3333282470703,198.33333206176758],[394.3333282470703,199.33333206176758],[394.3333282470703,200.33333206176758],[394.3333282470703,200.33333206176758],[393.3333282470703,202.33333206176758],[393.3333282470703,204.33333206176758],[391.3333282470703,206.33333206176758],[391.3333282470703,208.33333206176758],[389.3333282470703,209.33333206176758],[388.3333282470703,211.33333206176758],[387.3333282470703,212.33333206176758],[387.3333282470703,212.33333206176758],[387.3333282470703,213.33333206176758],[386.3333282470703,213.33333206176758],[385.3333282470703,213.33333206176758],[383.3333282470703,213.33333206176758],[381.3333282470703,213.33333206176758],[379.3333282470703,213.33333206176758],[377.3333282470703,213.33333206176758],[377.3333282470703,212.33333206176758],[375.3333282470703,210.33333206176758],[373.3333282470703,210.33333206176758],[372.3333282470703,210.33333206176758],[368.3333282470703,210.33333206176758],[367.3333282470703,210.33333206176758],[363.3333282470703,210.33333206176758],[358.3333282470703,210.33333206176758],[349.3333282470703,210.33333206176758],[342.3333282470703,209.33333206176758],[337.3333282470703,208.33333206176758],[333.3333282470703,208.33333206176758],[332.3333282470703,208.33333206176758],[331.3333282470703,208.33333206176758],[330.3333282470703,208.33333206176758],[329.3333282470703,208.33333206176758],[328.3333282470703,208.33333206176758],[327.3333282470703,208.33333206176758],[325.3333282470703,208.33333206176758],[324.3333282470703,208.33333206176758],[323.3333282470703,208.33333206176758],[322.3333282470703,208.33333206176758],[321.3333282470703,208.33333206176758],[321.3333282470703,209.33333206176758],[321.3333282470703,210.33333206176758],[322.3333282470703,210.33333206176758],[323.3333282470703,210.33333206176758],[324.3333282470703,211.33333206176758],[325.3333282470703,212.33333206176758],[325.3333282470703,212.33333206176758],[325.3333282470703,212.33333206176758],[326.3333282470703,212.33333206176758],[326.3333282470703,213.33333206176758],[327.3333282470703,213.33333206176758]]},{\"color\":\"#ef1010\",\"size\":\"24\",\"width\":480,\"height\":480,\"stroke\":[[331.3333282470703,214.33333206176758],[331.3333282470703,214.33333206176758],[331.3333282470703,216.33333206176758],[331.3333282470703,219.33333206176758],[330.3333282470703,222.33333206176758],[329.3333282470703,224.33333206176758],[327.3333282470703,226.33333206176758],[327.3333282470703,228.33333206176758],[326.3333282470703,229.33333206176758],[326.3333282470703,230.33333206176758],[326.3333282470703,231.33333206176758],[326.3333282470703,232.33333206176758],[326.3333282470703,233.33333206176758],[326.3333282470703,234.33333206176758],[326.3333282470703,235.33333206176758],[326.3333282470703,236.33333206176758],[333.3333282470703,236.33333206176758],[343.3333282470703,236.33333206176758],[361.3333282470703,232.33333206176758],[372.3333282470703,230.33333206176758],[379.3333282470703,228.33333206176758],[381.3333282470703,228.33333206176758],[381.3333282470703,228.33333206176758],[382.3333282470703,227.33333206176758],[383.3333282470703,227.33333206176758],[384.3333282470703,227.33333206176758],[385.3333282470703,227.33333206176758],[382.3333282470703,227.33333206176758],[381.3333282470703,228.33333206176758],[377.3333282470703,229.33333206176758],[365.3333282470703,230.33333206176758],[349.3333282470703,232.33333206176758],[335.3333282470703,232.33333206176758],[323.3333282470703,232.33333206176758],[321.3333282470703,233.33333206176758],[319.3333282470703,234.33333206176758],[319.3333282470703,234.33333206176758],[333.3333282470703,234.33333206176758],[355.3333282470703,235.33333206176758],[380.3333282470703,236.33333206176758],[386.3333282470703,236.33333206176758],[387.3333282470703,236.33333206176758],[387.3333282470703,236.33333206176758],[377.3333282470703,238.33333206176758],[358.3333282470703,241.33333206176758],[344.3333282470703,244.33333206176758],[336.3333282470703,245.33333206176758],[335.3333282470703,245.33333206176758],[336.3333282470703,245.33333206176758],[337.3333282470703,245.33333206176758],[339.3333282470703,245.33333206176758],[343.3333282470703,245.33333206176758],[351.3333282470703,245.33333206176758],[355.3333282470703,245.33333206176758],[360.3333282470703,246.33333206176758],[362.3333282470703,247.33333206176758],[363.3333282470703,247.33333206176758],[363.3333282470703,248.33333206176758],[363.3333282470703,248.33333206176758],[361.3333282470703,249.33333206176758],[353.3333282470703,250.33333206176758],[341.3333282470703,252.33333206176758],[331.3333282470703,255.33333206176758],[315.3333282470703,256.3333320617676],[311.3333282470703,258.3333320617676],[306.3333282470703,258.3333320617676],[305.3333282470703,259.3333320617676],[305.3333282470703,260.3333320617676],[306.3333282470703,260.3333320617676],[316.3333282470703,261.3333320617676],[323.3333282470703,262.3333320617676],[331.3333282470703,262.3333320617676],[336.3333282470703,262.3333320617676],[342.3333282470703,262.3333320617676],[348.3333282470703,262.3333320617676],[362.3333282470703,263.3333320617676],[370.3333282470703,263.3333320617676],[377.3333282470703,263.3333320617676],[380.3333282470703,264.3333320617676],[381.3333282470703,264.3333320617676],[379.3333282470703,264.3333320617676],[368.3333282470703,265.3333320617676],[358.3333282470703,266.3333320617676],[346.3333282470703,266.3333320617676],[335.3333282470703,266.3333320617676],[327.3333282470703,266.3333320617676],[324.3333282470703,266.3333320617676],[321.3333282470703,267.3333320617676],[319.3333282470703,267.3333320617676],[314.3333282470703,267.3333320617676],[307.3333282470703,267.3333320617676],[305.3333282470703,267.3333320617676],[301.3333282470703,268.3333320617676],[299.3333282470703,268.3333320617676],[298.3333282470703,268.3333320617676],[299.3333282470703,268.3333320617676],[299.3333282470703,267.3333320617676],[301.3333282470703,267.3333320617676],[303.3333282470703,267.3333320617676],[305.3333282470703,266.3333320617676],[307.3333282470703,266.3333320617676],[309.3333282470703,266.3333320617676],[313.3333282470703,266.3333320617676],[319.3333282470703,265.3333320617676],[321.3333282470703,265.3333320617676],[322.3333282470703,265.3333320617676],[323.3333282470703,265.3333320617676],[325.3333282470703,265.3333320617676],[327.3333282470703,265.3333320617676],[328.3333282470703,265.3333320617676],[329.3333282470703,265.3333320617676],[331.3333282470703,265.3333320617676],[335.3333282470703,265.3333320617676],[342.3333282470703,265.3333320617676],[351.3333282470703,264.3333320617676],[360.3333282470703,264.3333320617676],[365.3333282470703,264.3333320617676],[367.3333282470703,264.3333320617676],[369.3333282470703,264.3333320617676],[370.3333282470703,264.3333320617676],[372.3333282470703,265.3333320617676],[372.3333282470703,266.3333320617676],[369.3333282470703,266.3333320617676],[368.3333282470703,266.3333320617676],[361.3333282470703,266.3333320617676],[357.3333282470703,266.3333320617676],[349.3333282470703,268.3333320617676],[341.3333282470703,268.3333320617676],[335.3333282470703,268.3333320617676],[329.3333282470703,268.3333320617676],[326.3333282470703,268.3333320617676],[325.3333282470703,268.3333320617676],[324.3333282470703,268.3333320617676],[325.3333282470703,268.3333320617676],[326.3333282470703,270.3333320617676],[335.3333282470703,272.3333320617676],[341.3333282470703,273.3333320617676],[347.3333282470703,275.3333320617676],[355.3333282470703,276.3333320617676],[359.3333282470703,277.3333320617676],[363.3333282470703,278.3333320617676],[367.3333282470703,278.3333320617676],[369.3333282470703,278.3333320617676],[373.3333282470703,278.3333320617676],[375.3333282470703,278.3333320617676],[378.3333282470703,278.3333320617676],[380.3333282470703,278.3333320617676],[382.3333282470703,278.3333320617676],[383.3333282470703,278.3333320617676],[384.3333282470703,278.3333320617676],[385.3333282470703,278.3333320617676],[387.3333282470703,278.3333320617676],[388.3333282470703,278.3333320617676],[389.3333282470703,278.3333320617676],[389.3333282470703,278.3333320617676],[391.3333282470703,275.3333320617676],[391.3333282470703,273.3333320617676],[391.3333282470703,270.3333320617676],[391.3333282470703,267.3333320617676],[391.3333282470703,263.3333320617676],[391.3333282470703,258.3333320617676],[390.3333282470703,257.3333320617676],[388.3333282470703,253.33333206176758],[387.3333282470703,250.33333206176758],[387.3333282470703,248.33333206176758],[387.3333282470703,246.33333206176758],[387.3333282470703,246.33333206176758],[386.3333282470703,245.33333206176758],[387.3333282470703,246.33333206176758],[387.3333282470703,247.33333206176758],[388.3333282470703,249.33333206176758],[388.3333282470703,252.33333206176758],[389.3333282470703,255.33333206176758],[389.3333282470703,260.3333320617676],[389.3333282470703,262.3333320617676],[389.3333282470703,267.3333320617676],[389.3333282470703,270.3333320617676],[389.3333282470703,270.3333320617676],[389.3333282470703,274.3333320617676],[389.3333282470703,277.3333320617676],[389.3333282470703,280.3333320617676],[389.3333282470703,285.3333320617676],[389.3333282470703,289.3333320617676],[389.3333282470703,293.3333320617676],[389.3333282470703,297.3333320617676],[389.3333282470703,298.3333320617676],[389.3333282470703,299.3333320617676],[389.3333282470703,301.3333320617676],[390.3333282470703,302.3333320617676],[391.3333282470703,304.3333320617676],[391.3333282470703,306.3333320617676],[393.3333282470703,309.3333320617676],[393.3333282470703,312.3333320617676],[393.3333282470703,315.3333320617676],[393.3333282470703,316.3333320617676],[393.3333282470703,319.3333320617676],[393.3333282470703,321.3333320617676],[393.3333282470703,323.3333320617676],[393.3333282470703,324.3333320617676],[393.3333282470703,327.3333320617676],[393.3333282470703,329.3333320617676],[393.3333282470703,330.3333320617676],[393.3333282470703,332.3333320617676],[392.3333282470703,336.3333320617676],[391.3333282470703,339.3333320617676],[391.3333282470703,341.3333320617676],[390.3333282470703,342.3333320617676],[389.3333282470703,343.3333320617676],[388.3333282470703,343.3333320617676],[387.3333282470703,343.3333320617676],[385.3333282470703,340.3333320617676],[383.3333282470703,336.3333320617676],[382.3333282470703,328.3333320617676],[378.3333282470703,318.3333320617676],[375.3333282470703,307.3333320617676],[373.3333282470703,293.3333320617676],[371.3333282470703,284.3333320617676],[371.3333282470703,279.3333320617676],[370.3333282470703,276.3333320617676],[370.3333282470703,274.3333320617676],[370.3333282470703,274.3333320617676],[370.3333282470703,274.3333320617676],[370.3333282470703,278.3333320617676],[369.3333282470703,280.3333320617676],[369.3333282470703,287.3333320617676],[371.3333282470703,295.3333320617676],[374.3333282470703,311.3333320617676],[377.3333282470703,318.3333320617676],[379.3333282470703,323.3333320617676],[382.3333282470703,327.3333320617676],[382.3333282470703,330.3333320617676],[383.3333282470703,333.3333320617676],[385.3333282470703,336.3333320617676],[387.3333282470703,341.3333320617676],[387.3333282470703,342.3333320617676],[388.3333282470703,348.3333320617676],[389.3333282470703,354.3333320617676],[389.3333282470703,360.3333320617676],[389.3333282470703,369.3333320617676],[389.3333282470703,373.3333320617676],[389.3333282470703,376.3333320617676],[390.3333282470703,378.3333320617676],[390.3333282470703,380.3333320617676],[390.3333282470703,381.3333320617676],[389.3333282470703,383.3333320617676],[388.3333282470703,387.3333320617676],[387.3333282470703,389.3333320617676],[386.3333282470703,392.3333320617676],[386.3333282470703,393.3333320617676],[385.3333282470703,396.3333320617676],[385.3333282470703,398.3333320617676],[383.3333282470703,401.3333320617676],[383.3333282470703,403.3333320617676],[381.3333282470703,405.3333320617676],[381.3333282470703,406.3333320617676],[381.3333282470703,406.3333320617676],[381.3333282470703,404.3333320617676],[381.3333282470703,398.3333320617676],[380.3333282470703,391.3333320617676],[380.3333282470703,381.3333320617676],[380.3333282470703,376.3333320617676],[382.3333282470703,368.3333320617676],[383.3333282470703,356.3333320617676],[385.3333282470703,344.3333320617676],[385.3333282470703,329.3333320617676],[381.3333282470703,315.3333320617676],[379.3333282470703,305.3333320617676],[375.3333282470703,290.3333320617676],[373.3333282470703,279.3333320617676],[369.3333282470703,272.3333320617676],[369.3333282470703,270.3333320617676],[366.3333282470703,268.3333320617676],[365.3333282470703,268.3333320617676],[365.3333282470703,268.3333320617676],[363.3333282470703,268.3333320617676],[361.3333282470703,268.3333320617676],[360.3333282470703,268.3333320617676],[360.3333282470703,267.3333320617676],[360.3333282470703,268.3333320617676],[359.3333282470703,270.3333320617676],[357.3333282470703,277.3333320617676],[357.3333282470703,282.3333320617676],[357.3333282470703,286.3333320617676],[357.3333282470703,289.3333320617676],[356.3333282470703,293.3333320617676],[356.3333282470703,295.3333320617676],[355.3333282470703,298.3333320617676],[354.3333282470703,302.3333320617676],[352.3333282470703,306.3333320617676],[351.3333282470703,310.3333320617676],[348.3333282470703,314.3333320617676],[345.3333282470703,316.3333320617676],[342.3333282470703,320.3333320617676],[341.3333282470703,320.3333320617676],[340.3333282470703,321.3333320617676],[340.3333282470703,322.3333320617676],[339.3333282470703,323.3333320617676],[339.3333282470703,323.3333320617676],[337.3333282470703,320.3333320617676],[337.3333282470703,310.3333320617676],[335.3333282470703,295.3333320617676],[333.3333282470703,285.3333320617676],[332.3333282470703,278.3333320617676],[332.3333282470703,272.3333320617676],[332.3333282470703,266.3333320617676],[331.3333282470703,260.3333320617676],[331.3333282470703,260.3333320617676],[331.3333282470703,260.3333320617676],[329.3333282470703,264.3333320617676],[327.3333282470703,266.3333320617676],[327.3333282470703,271.3333320617676],[327.3333282470703,276.3333320617676],[327.3333282470703,281.3333320617676],[327.3333282470703,286.3333320617676],[327.3333282470703,290.3333320617676],[327.3333282470703,294.3333320617676],[327.3333282470703,296.3333320617676],[329.3333282470703,298.3333320617676],[330.3333282470703,302.3333320617676],[331.3333282470703,305.3333320617676],[331.3333282470703,310.3333320617676],[333.3333282470703,314.3333320617676],[334.3333282470703,318.3333320617676],[334.3333282470703,321.3333320617676],[334.3333282470703,324.3333320617676],[335.3333282470703,329.3333320617676],[337.3333282470703,335.3333320617676],[337.3333282470703,340.3333320617676],[337.3333282470703,343.3333320617676],[338.3333282470703,346.3333320617676],[338.3333282470703,352.3333320617676],[338.3333282470703,358.3333320617676],[338.3333282470703,364.3333320617676],[335.3333282470703,368.3333320617676],[333.3333282470703,371.3333320617676],[332.3333282470703,374.3333320617676],[331.3333282470703,375.3333320617676],[329.3333282470703,376.3333320617676],[329.3333282470703,377.3333320617676],[328.3333282470703,379.3333320617676],[327.3333282470703,382.3333320617676],[325.3333282470703,384.3333320617676],[323.3333282470703,385.3333320617676],[322.3333282470703,386.3333320617676],[322.3333282470703,389.3333320617676],[322.3333282470703,390.3333320617676],[321.3333282470703,392.3333320617676],[321.3333282470703,394.3333320617676],[321.3333282470703,397.3333320617676],[321.3333282470703,398.3333320617676],[321.3333282470703,400.3333320617676],[321.3333282470703,402.3333320617676],[321.3333282470703,405.3333320617676],[321.3333282470703,408.3333320617676],[321.3333282470703,410.3333320617676],[322.3333282470703,412.3333320617676],[322.3333282470703,416.3333320617676],[322.3333282470703,420.3333320617676],[322.3333282470703,422.3333320617676],[322.3333282470703,426.3333320617676],[322.3333282470703,430.3333320617676],[322.3333282470703,432.3333320617676],[321.3333282470703,436.3333320617676],[321.3333282470703,442.3333320617676],[320.3333282470703,444.3333320617676],[321.3333282470703,449.3333320617676],[320.3333282470703,453.3333320617676],[318.3333282470703,458.3333320617676],[317.3333282470703,460.3333320617676],[317.3333282470703,461.3333320617676],[317.3333282470703,462.3333320617676],[317.3333282470703,462.3333320617676],[316.3333282470703,462.3333320617676],[316.3333282470703,460.3333320617676],[316.3333282470703,456.3333320617676]]},{\"color\":\"#04fbfb\",\"size\":\"24\",\"width\":480,\"height\":480,\"stroke\":[[407.3333282470703,114.33333206176758],[407.3333282470703,115.33333206176758],[407.3333282470703,117.33333206176758],[408.3333282470703,120.33333206176758],[408.3333282470703,122.33333206176758],[409.3333282470703,124.33333206176758],[409.3333282470703,127.33333206176758],[409.3333282470703,129.33333206176758],[409.3333282470703,130.33333206176758],[409.3333282470703,131.33333206176758],[409.3333282470703,132.33333206176758],[409.3333282470703,132.33333206176758],[409.3333282470703,134.33333206176758],[409.3333282470703,135.33333206176758],[409.3333282470703,136.33333206176758],[409.3333282470703,137.33333206176758],[409.3333282470703,139.33333206176758],[409.3333282470703,140.33333206176758],[409.3333282470703,140.33333206176758],[409.3333282470703,142.33333206176758],[409.3333282470703,144.33333206176758],[408.3333282470703,148.33333206176758],[407.3333282470703,150.33333206176758],[407.3333282470703,153.33333206176758],[406.3333282470703,156.33333206176758],[406.3333282470703,160.33333206176758],[405.3333282470703,161.33333206176758],[405.3333282470703,163.33333206176758],[405.3333282470703,164.33333206176758],[405.3333282470703,166.33333206176758],[405.3333282470703,166.33333206176758],[405.3333282470703,168.33333206176758],[405.3333282470703,169.33333206176758],[405.3333282470703,172.33333206176758],[405.3333282470703,174.33333206176758],[405.3333282470703,176.33333206176758],[406.3333282470703,180.33333206176758],[407.3333282470703,182.33333206176758],[407.3333282470703,183.33333206176758],[407.3333282470703,184.33333206176758],[407.3333282470703,185.33333206176758],[407.3333282470703,186.33333206176758],[408.3333282470703,188.33333206176758],[409.3333282470703,189.33333206176758],[409.3333282470703,190.33333206176758],[411.3333282470703,192.33333206176758],[413.3333282470703,193.33333206176758],[414.3333282470703,196.33333206176758],[419.3333282470703,202.33333206176758],[420.3333282470703,206.33333206176758],[421.3333282470703,207.33333206176758],[422.3333282470703,209.33333206176758],[423.3333282470703,212.33333206176758],[424.3333282470703,214.33333206176758],[426.3333282470703,216.33333206176758],[427.3333282470703,219.33333206176758],[429.3333282470703,222.33333206176758],[429.3333282470703,225.33333206176758],[429.3333282470703,227.33333206176758],[430.3333282470703,228.33333206176758],[430.3333282470703,229.33333206176758]]},{\"color\":\"#04fbfb\",\"size\":\"24\",\"width\":480,\"height\":480,\"stroke\":[[310.3333282470703,123.33333206176758],[310.3333282470703,124.33333206176758],[307.3333282470703,128.33333206176758],[307.3333282470703,130.33333206176758],[306.3333282470703,132.33333206176758],[305.3333282470703,134.33333206176758],[305.3333282470703,136.33333206176758],[305.3333282470703,138.33333206176758],[304.3333282470703,141.33333206176758],[304.3333282470703,143.33333206176758],[304.3333282470703,146.33333206176758],[304.3333282470703,147.33333206176758],[304.3333282470703,148.33333206176758],[304.3333282470703,151.33333206176758],[303.3333282470703,154.33333206176758],[303.3333282470703,155.33333206176758],[303.3333282470703,160.33333206176758],[303.3333282470703,162.33333206176758],[303.3333282470703,164.33333206176758],[303.3333282470703,168.33333206176758],[303.3333282470703,172.33333206176758],[304.3333282470703,176.33333206176758],[305.3333282470703,178.33333206176758],[305.3333282470703,184.33333206176758],[305.3333282470703,188.33333206176758],[305.3333282470703,192.33333206176758],[305.3333282470703,198.33333206176758],[305.3333282470703,202.33333206176758],[305.3333282470703,208.33333206176758],[305.3333282470703,213.33333206176758],[305.3333282470703,217.33333206176758],[305.3333282470703,222.33333206176758],[305.3333282470703,224.33333206176758],[305.3333282470703,229.33333206176758],[303.3333282470703,235.33333206176758],[303.3333282470703,239.33333206176758],[301.3333282470703,243.33333206176758],[301.3333282470703,246.33333206176758],[299.3333282470703,249.33333206176758],[299.3333282470703,254.33333206176758],[298.3333282470703,256.3333320617676],[298.3333282470703,258.3333320617676],[297.3333282470703,260.3333320617676],[296.3333282470703,261.3333320617676],[296.3333282470703,263.3333320617676],[295.3333282470703,264.3333320617676],[295.3333282470703,264.3333320617676],[294.3333282470703,266.3333320617676],[293.3333282470703,268.3333320617676],[293.3333282470703,269.3333320617676],[292.3333282470703,271.3333320617676],[291.3333282470703,272.3333320617676],[290.3333282470703,274.3333320617676],[289.3333282470703,274.3333320617676],[289.3333282470703,275.3333320617676],[289.3333282470703,276.3333320617676],[289.3333282470703,276.3333320617676],[289.3333282470703,277.3333320617676],[288.3333282470703,278.3333320617676],[287.3333282470703,278.3333320617676],[287.3333282470703,277.3333320617676],[287.3333282470703,276.3333320617676]]},{\"color\":\"#04fbfb\",\"size\":\"24\",\"width\":480,\"height\":480,\"stroke\":[[376.3333282470703,85.33333206176758],[377.3333282470703,84.33333206176758],[377.3333282470703,84.33333206176758],[378.3333282470703,84.33333206176758],[379.3333282470703,84.33333206176758],[381.3333282470703,84.33333206176758],[390.3333282470703,84.33333206176758],[395.3333282470703,85.33333206176758],[399.3333282470703,87.33333206176758],[409.3333282470703,88.33333206176758],[412.3333282470703,88.33333206176758]]},{\"color\":\"#04fbfb\",\"size\":\"24\",\"width\":480,\"height\":480,\"stroke\":[[116.33332824707031,40.33333206176758]]},{\"color\":\"#04fbfb\",\"size\":\"24\",\"width\":480,\"height\":480,\"stroke\":[[98.33332824707031,38.33333206176758],[98.33332824707031,38.33333206176758],[98.33332824707031,37.33333206176758],[99.33332824707031,37.33333206176758],[99.33332824707031,36.33333206176758],[99.33332824707031,36.33333206176758],[100.33332824707031,36.33333206176758],[101.33332824707031,36.33333206176758],[101.33332824707031,36.33333206176758]]},{\"color\":\"#04fbfb\",\"size\":\"24\",\"width\":480,\"height\":480,\"stroke\":[[102.33332824707031,35.33333206176758],[103.33332824707031,35.33333206176758],[104.33332824707031,35.33333206176758],[106.33332824707031,34.33333206176758],[108.33332824707031,34.33333206176758],[112.33332824707031,33.33333206176758],[115.33332824707031,32.33333206176758],[122.33332824707031,30.333332061767578],[125.33332824707031,30.333332061767578],[127.33332824707031,30.333332061767578],[128.3333282470703,30.333332061767578],[129.3333282470703,30.333332061767578],[129.3333282470703,30.333332061767578],[129.3333282470703,30.333332061767578]]},{\"color\":\"#04fbfb\",\"size\":\"24\",\"width\":480,\"height\":480,\"stroke\":[[127.33332824707031,30.333332061767578],[125.33332824707031,29.333332061767578],[121.33332824707031,29.333332061767578],[117.33332824707031,28.333332061767578],[115.33332824707031,28.333332061767578],[115.33332824707031,28.333332061767578],[114.33332824707031,28.333332061767578],[115.33332824707031,28.333332061767578],[125.33332824707031,28.333332061767578],[129.3333282470703,28.333332061767578],[140.3333282470703,28.333332061767578],[145.3333282470703,29.333332061767578],[149.3333282470703,30.333332061767578],[151.3333282470703,30.333332061767578],[151.3333282470703,32.33333206176758],[151.3333282470703,32.33333206176758],[152.3333282470703,34.33333206176758],[153.3333282470703,37.33333206176758],[153.3333282470703,39.33333206176758],[153.3333282470703,40.33333206176758],[153.3333282470703,42.33333206176758],[153.3333282470703,42.33333206176758],[153.3333282470703,44.33333206176758],[152.3333282470703,47.33333206176758],[150.3333282470703,49.33333206176758],[149.3333282470703,50.33333206176758],[147.3333282470703,52.33333206176758],[146.3333282470703,52.33333206176758],[145.3333282470703,53.33333206176758],[144.3333282470703,54.33333206176758],[143.3333282470703,54.33333206176758],[142.3333282470703,55.33333206176758],[139.3333282470703,56.33333206176758],[135.3333282470703,56.33333206176758],[133.3333282470703,56.33333206176758],[131.3333282470703,56.33333206176758],[129.3333282470703,57.33333206176758],[128.3333282470703,57.33333206176758],[127.33332824707031,57.33333206176758],[127.33332824707031,57.33333206176758],[126.33332824707031,57.33333206176758],[123.33332824707031,57.33333206176758],[120.33332824707031,57.33333206176758],[115.33332824707031,57.33333206176758],[111.33332824707031,58.33333206176758],[107.33332824707031,58.33333206176758],[104.33332824707031,58.33333206176758],[102.33332824707031,58.33333206176758],[101.33332824707031,58.33333206176758],[100.33332824707031,58.33333206176758],[99.33332824707031,58.33333206176758],[99.33332824707031,58.33333206176758],[98.33332824707031,58.33333206176758],[97.33332824707031,58.33333206176758],[97.33332824707031,59.33333206176758],[97.33332824707031,59.33333206176758],[99.33332824707031,59.33333206176758],[104.33332824707031,61.33333206176758],[108.33332824707031,62.33333206176758],[111.33332824707031,62.33333206176758],[114.33332824707031,62.33333206176758],[116.33332824707031,62.33333206176758],[117.33332824707031,62.33333206176758],[118.33332824707031,62.33333206176758],[119.33332824707031,62.33333206176758],[120.33332824707031,60.33333206176758],[123.33332824707031,60.33333206176758],[123.33332824707031,60.33333206176758],[124.33332824707031,59.33333206176758],[125.33332824707031,58.33333206176758],[125.33332824707031,58.33333206176758],[125.33332824707031,56.33333206176758],[125.33332824707031,52.33333206176758],[125.33332824707031,50.33333206176758],[125.33332824707031,48.33333206176758],[125.33332824707031,46.33333206176758],[125.33332824707031,42.33333206176758],[125.33332824707031,40.33333206176758],[125.33332824707031,38.33333206176758],[125.33332824707031,38.33333206176758],[125.33332824707031,36.33333206176758],[125.33332824707031,36.33333206176758],[125.33332824707031,34.33333206176758],[125.33332824707031,34.33333206176758],[125.33332824707031,31.333332061767578],[125.33332824707031,30.333332061767578],[125.33332824707031,28.333332061767578],[125.33332824707031,26.333332061767578],[125.33332824707031,25.333332061767578],[125.33332824707031,24.333332061767578],[124.33332824707031,22.333332061767578],[123.33332824707031,22.333332061767578],[123.33332824707031,22.333332061767578],[122.33332824707031,22.333332061767578],[121.33332824707031,21.333332061767578],[120.33332824707031,21.333332061767578],[119.33332824707031,21.333332061767578],[118.33332824707031,21.333332061767578],[117.33332824707031,21.333332061767578],[117.33332824707031,21.333332061767578],[116.33332824707031,21.333332061767578],[113.33332824707031,22.333332061767578],[110.33332824707031,24.333332061767578],[109.33332824707031,26.333332061767578],[108.33332824707031,27.333332061767578],[107.33332824707031,28.333332061767578],[106.33332824707031,29.333332061767578],[104.33332824707031,29.333332061767578],[103.33332824707031,29.333332061767578],[103.33332824707031,29.333332061767578],[103.33332824707031,30.333332061767578],[102.33332824707031,31.333332061767578],[102.33332824707031,32.33333206176758],[102.33332824707031,32.33333206176758],[102.33332824707031,33.33333206176758],[103.33332824707031,33.33333206176758],[103.33332824707031,33.33333206176758],[106.33332824707031,33.33333206176758],[111.33332824707031,32.33333206176758],[119.33332824707031,30.333332061767578],[129.3333282470703,28.333332061767578],[138.3333282470703,28.333332061767578],[141.3333282470703,28.333332061767578],[141.3333282470703,28.333332061767578],[142.3333282470703,28.333332061767578],[143.3333282470703,28.333332061767578],[146.3333282470703,30.333332061767578],[149.3333282470703,32.33333206176758],[151.3333282470703,35.33333206176758],[152.3333282470703,36.33333206176758],[152.3333282470703,38.33333206176758],[152.3333282470703,38.33333206176758],[152.3333282470703,40.33333206176758],[152.3333282470703,41.33333206176758],[152.3333282470703,42.33333206176758],[151.3333282470703,42.33333206176758],[151.3333282470703,44.33333206176758],[149.3333282470703,46.33333206176758],[148.3333282470703,46.33333206176758],[146.3333282470703,48.33333206176758],[143.3333282470703,50.33333206176758],[142.3333282470703,51.33333206176758],[141.3333282470703,52.33333206176758],[140.3333282470703,53.33333206176758],[139.3333282470703,54.33333206176758],[139.3333282470703,54.33333206176758],[138.3333282470703,55.33333206176758],[137.3333282470703,56.33333206176758],[137.3333282470703,56.33333206176758],[137.3333282470703,58.33333206176758],[136.3333282470703,58.33333206176758],[136.3333282470703,59.33333206176758],[136.3333282470703,60.33333206176758],[136.3333282470703,60.33333206176758],[135.3333282470703,61.33333206176758],[135.3333282470703,62.33333206176758],[135.3333282470703,63.33333206176758],[135.3333282470703,63.33333206176758],[134.3333282470703,63.33333206176758],[133.3333282470703,63.33333206176758],[133.3333282470703,64.33333206176758],[133.3333282470703,64.33333206176758],[133.3333282470703,64.33333206176758],[132.3333282470703,65.33333206176758],[131.3333282470703,66.33333206176758],[131.3333282470703,66.33333206176758],[131.3333282470703,66.33333206176758],[131.3333282470703,67.33333206176758],[131.3333282470703,68.33333206176758],[130.3333282470703,68.33333206176758],[130.3333282470703,70.33333206176758],[130.3333282470703,70.33333206176758],[130.3333282470703,71.33333206176758],[129.3333282470703,72.33333206176758],[129.3333282470703,72.33333206176758],[129.3333282470703,72.33333206176758],[127.33332824707031,74.33333206176758],[125.33332824707031,74.33333206176758],[123.33332824707031,74.33333206176758],[122.33332824707031,74.33333206176758],[121.33332824707031,75.33333206176758],[119.33332824707031,76.33333206176758],[115.33332824707031,76.33333206176758],[113.33332824707031,77.33333206176758],[111.33332824707031,77.33333206176758],[110.33332824707031,78.33333206176758],[109.33332824707031,78.33333206176758],[108.33332824707031,78.33333206176758],[105.33332824707031,80.33333206176758],[102.33332824707031,82.33333206176758],[101.33332824707031,83.33333206176758],[100.33332824707031,83.33333206176758],[99.33332824707031,84.33333206176758],[97.33332824707031,85.33333206176758],[95.33332824707031,85.33333206176758],[93.33332824707031,87.33333206176758],[91.33332824707031,88.33333206176758],[88.33332824707031,88.33333206176758],[86.33332824707031,89.33333206176758],[84.33332824707031,90.33333206176758],[83.33332824707031,91.33333206176758],[81.33332824707031,92.33333206176758],[80.33332824707031,92.33333206176758],[79.33332824707031,92.33333206176758],[78.33332824707031,92.33333206176758],[76.33332824707031,93.33333206176758],[73.33332824707031,94.33333206176758],[71.33332824707031,95.33333206176758],[69.33332824707031,96.33333206176758],[68.33332824707031,96.33333206176758],[68.33332824707031,97.33333206176758],[67.33332824707031,97.33333206176758],[67.33332824707031,98.33333206176758],[66.33332824707031,98.33333206176758],[65.33332824707031,100.33333206176758],[64.33332824707031,101.33333206176758],[63.33332824707031,102.33333206176758],[62.33332824707031,102.33333206176758],[60.33332824707031,103.33333206176758],[59.33332824707031,104.33333206176758],[59.33332824707031,104.33333206176758],[58.33332824707031,104.33333206176758],[58.33332824707031,105.33333206176758],[58.33332824707031,106.33333206176758],[58.33332824707031,106.33333206176758],[58.33332824707031,107.33333206176758],[57.33332824707031,110.33333206176758],[57.33332824707031,112.33333206176758],[57.33332824707031,114.33333206176758],[57.33332824707031,115.33333206176758],[57.33332824707031,117.33333206176758],[57.33332824707031,119.33333206176758],[58.33332824707031,121.33333206176758],[58.33332824707031,122.33333206176758],[59.33332824707031,124.33333206176758],[59.33332824707031,126.33333206176758],[59.33332824707031,127.33333206176758],[59.33332824707031,128.33333206176758],[59.33332824707031,129.33333206176758],[59.33332824707031,130.33333206176758],[59.33332824707031,131.33333206176758],[59.33332824707031,132.33333206176758],[60.33332824707031,134.33333206176758],[60.33332824707031,139.33333206176758],[60.33332824707031,141.33333206176758],[60.33332824707031,143.33333206176758],[61.33332824707031,144.33333206176758],[61.33332824707031,145.33333206176758],[61.33332824707031,146.33333206176758],[61.33332824707031,146.33333206176758],[61.33332824707031,147.33333206176758],[61.33332824707031,148.33333206176758],[61.33332824707031,148.33333206176758],[61.33332824707031,150.33333206176758],[61.33332824707031,150.33333206176758],[61.33332824707031,151.33333206176758],[61.33332824707031,152.33333206176758],[61.33332824707031,154.33333206176758],[61.33332824707031,154.33333206176758],[61.33332824707031,155.33333206176758],[60.33332824707031,155.33333206176758],[60.33332824707031,156.33333206176758],[60.33332824707031,156.33333206176758],[59.33332824707031,157.33333206176758],[59.33332824707031,158.33333206176758],[59.33332824707031,159.33333206176758],[58.33332824707031,161.33333206176758],[57.33332824707031,162.33333206176758],[57.33332824707031,164.33333206176758],[57.33332824707031,166.33333206176758],[56.33332824707031,169.33333206176758],[55.33332824707031,170.33333206176758],[55.33332824707031,173.33333206176758],[55.33332824707031,174.33333206176758],[55.33332824707031,174.33333206176758],[54.33332824707031,174.33333206176758],[53.33332824707031,175.33333206176758],[53.33332824707031,178.33333206176758],[53.33332824707031,180.33333206176758],[53.33332824707031,181.33333206176758],[52.33332824707031,182.33333206176758],[52.33332824707031,184.33333206176758],[51.33332824707031,186.33333206176758],[51.33332824707031,186.33333206176758],[51.33332824707031,188.33333206176758],[51.33332824707031,189.33333206176758],[51.33332824707031,190.33333206176758],[51.33332824707031,192.33333206176758],[50.33332824707031,194.33333206176758],[49.33332824707031,196.33333206176758],[48.33332824707031,197.33333206176758],[48.33332824707031,198.33333206176758],[47.33332824707031,201.33333206176758],[47.33332824707031,202.33333206176758],[47.33332824707031,204.33333206176758],[47.33332824707031,206.33333206176758],[47.33332824707031,209.33333206176758],[47.33332824707031,211.33333206176758],[46.33332824707031,214.33333206176758],[46.33332824707031,219.33333206176758],[45.33332824707031,222.33333206176758],[45.33332824707031,224.33333206176758],[45.33332824707031,228.33333206176758],[44.33332824707031,229.33333206176758],[44.33332824707031,232.33333206176758],[44.33332824707031,234.33333206176758],[43.33332824707031,236.33333206176758],[43.33332824707031,238.33333206176758],[43.33332824707031,241.33333206176758],[43.33332824707031,244.33333206176758],[42.33332824707031,248.33333206176758],[42.33332824707031,249.33333206176758],[41.33332824707031,250.33333206176758],[41.33332824707031,252.33333206176758],[41.33332824707031,253.33333206176758],[41.33332824707031,254.33333206176758],[41.33332824707031,255.33333206176758],[41.33332824707031,256.3333320617676],[41.33332824707031,258.3333320617676],[41.33332824707031,261.3333320617676],[41.33332824707031,263.3333320617676],[41.33332824707031,265.3333320617676],[41.33332824707031,267.3333320617676],[41.33332824707031,268.3333320617676],[41.33332824707031,269.3333320617676],[41.33332824707031,268.3333320617676],[41.33332824707031,268.3333320617676],[42.33332824707031,266.3333320617676],[43.33332824707031,265.3333320617676],[43.33332824707031,263.3333320617676],[45.33332824707031,259.3333320617676],[47.33332824707031,256.3333320617676],[48.33332824707031,253.33333206176758],[50.33332824707031,250.33333206176758],[51.33332824707031,249.33333206176758],[51.33332824707031,248.33333206176758],[51.33332824707031,247.33333206176758],[51.33332824707031,245.33333206176758],[51.33332824707031,244.33333206176758],[51.33332824707031,243.33333206176758],[52.33332824707031,243.33333206176758],[53.33332824707031,241.33333206176758],[53.33332824707031,241.33333206176758],[54.33332824707031,240.33333206176758],[54.33332824707031,238.33333206176758],[54.33332824707031,237.33333206176758],[54.33332824707031,236.33333206176758],[54.33332824707031,236.33333206176758],[54.33332824707031,234.33333206176758],[55.33332824707031,234.33333206176758],[55.33332824707031,233.33333206176758],[55.33332824707031,232.33333206176758],[55.33332824707031,231.33333206176758],[55.33332824707031,230.33333206176758],[56.33332824707031,229.33333206176758],[56.33332824707031,228.33333206176758],[57.33332824707031,226.33333206176758],[58.33332824707031,225.33333206176758],[59.33332824707031,222.33333206176758],[61.33332824707031,221.33333206176758],[61.33332824707031,217.33333206176758],[62.33332824707031,215.33333206176758],[63.33332824707031,212.33333206176758],[65.33332824707031,209.33333206176758],[65.33332824707031,206.33333206176758],[66.33332824707031,205.33333206176758],[66.33332824707031,204.33333206176758],[67.33332824707031,202.33333206176758],[67.33332824707031,202.3333