[{"view_history":"[{\"page_index\":0,\"viewing_time\":18240}]","rt":18241,"trial_type":"instructions","trial_index":0,"time_elapsed":18279,"internal_node_id":"0.0-0.0","participant_id":4025705,"xgorilla":{"user_agent":"Mozilla/5.0 (Windows NT 10.0; Win64; x64; rv:88.0) Gecko/20100101 Firefox/88.0","screen_size":"1280x720","browser_size":"1280x551"}},{"instructions":"Wählen sie die Farbe rot und bemalen sie damit die Körperstellen, an denen sie nicht gerne berührt werden. Wählen sie die Farbe blau und bemalen sie damit die Körperstellen, an denen sie gerne berührt werden. Benutzen sie auch die Farbabstufungen.","rt":184655,"strokes":"[{\"color\":\"#05fafa\",\"size\":15,\"width\":480,\"height\":480,\"stroke\":[[321.6666717529297,97.13333129882812],[323.6666717529297,97.13333129882812],[324.6666717529297,97.13333129882812],[327.6666717529297,97.13333129882812],[328.6666717529297,97.13333129882812],[329.6666717529297,97.13333129882812],[329.6666717529297,97.13333129882812],[331.6666717529297,97.13333129882812],[331.6666717529297,97.13333129882812],[333.6666717529297,97.13333129882812],[333.6666717529297,97.13333129882812],[334.6666717529297,97.13333129882812],[335.6666717529297,97.13333129882812],[335.6666717529297,97.13333129882812],[336.6666717529297,97.13333129882812],[337.6666717529297,97.13333129882812],[337.6666717529297,97.13333129882812],[338.6666717529297,97.13333129882812],[339.6666717529297,97.13333129882812],[339.6666717529297,97.13333129882812],[340.6666717529297,97.13333129882812],[341.6666717529297,97.13333129882812],[341.6666717529297,97.13333129882812],[342.6666717529297,97.13333129882812],[343.6666717529297,97.13333129882812],[343.6666717529297,97.13333129882812],[344.6666717529297,97.13333129882812],[345.6666717529297,97.13333129882812],[345.6666717529297,97.13333129882812],[346.6666717529297,97.13333129882812],[347.6666717529297,96.13333129882812],[348.6666717529297,95.13333129882812],[348.6666717529297,95.13333129882812],[350.6666717529297,95.13333129882812],[350.6666717529297,94.13333129882812],[351.6666717529297,94.13333129882812],[352.6666717529297,94.13333129882812],[353.6666717529297,94.13333129882812],[353.6666717529297,94.13333129882812],[354.6666717529297,94.13333129882812],[355.6666717529297,94.13333129882812],[355.6666717529297,94.13333129882812],[356.6666717529297,94.13333129882812],[357.6666717529297,94.13333129882812],[357.6666717529297,94.13333129882812],[358.6666717529297,94.13333129882812],[359.6666717529297,94.13333129882812],[359.6666717529297,94.13333129882812],[360.6666717529297,94.13333129882812],[361.6666717529297,94.13333129882812],[361.6666717529297,94.13333129882812],[362.6666717529297,94.13333129882812],[363.6666717529297,94.13333129882812],[363.6666717529297,94.13333129882812],[364.6666717529297,94.13333129882812],[365.6666717529297,94.13333129882812],[365.6666717529297,94.13333129882812],[366.6666717529297,94.13333129882812],[367.6666717529297,94.13333129882812],[367.6666717529297,94.13333129882812],[368.6666717529297,94.13333129882812],[369.6666717529297,94.13333129882812],[369.6666717529297,94.13333129882812],[370.6666717529297,94.13333129882812],[371.6666717529297,94.13333129882812],[371.6666717529297,94.13333129882812],[372.6666717529297,94.13333129882812],[373.6666717529297,94.13333129882812],[373.6666717529297,94.13333129882812],[374.6666717529297,94.13333129882812],[375.6666717529297,94.13333129882812],[375.6666717529297,94.13333129882812],[376.6666717529297,94.13333129882812],[377.6666717529297,94.13333129882812],[377.6666717529297,94.13333129882812],[378.6666717529297,94.13333129882812],[379.6666717529297,94.13333129882812],[381.6666717529297,93.13333129882812]]},{\"color\":\"#05fafa\",\"size\":15,\"width\":480,\"height\":480,\"stroke\":[[381.6666717529297,92.13333129882812],[383.6666717529297,92.13333129882812],[384.6666717529297,92.13333129882812],[385.6666717529297,92.13333129882812],[387.6666717529297,92.13333129882812],[389.6666717529297,93.13333129882812],[390.6666717529297,93.13333129882812],[391.6666717529297,93.13333129882812],[391.6666717529297,93.13333129882812],[392.6666717529297,93.13333129882812],[393.6666717529297,93.13333129882812],[393.6666717529297,93.13333129882812],[394.6666717529297,93.13333129882812],[394.6666717529297,93.13333129882812],[395.6666717529297,93.13333129882812],[395.6666717529297,93.13333129882812],[396.6666717529297,93.13333129882812],[397.6666717529297,93.13333129882812],[397.6666717529297,93.13333129882812],[398.6666717529297,93.13333129882812],[399.6666717529297,93.13333129882812],[399.6666717529297,94.13333129882812],[400.6666717529297,95.13333129882812],[401.6666717529297,96.13333129882812],[401.6666717529297,96.13333129882812],[402.6666717529297,97.13333129882812],[403.6666717529297,97.13333129882812],[403.6666717529297,98.13333129882812],[403.6666717529297,99.13333129882812],[404.6666717529297,99.13333129882812],[405.6666717529297,100.13333129882812],[405.6666717529297,101.13333129882812],[405.6666717529297,101.13333129882812],[406.6666717529297,101.13333129882812],[406.6666717529297,102.13333129882812],[407.6666717529297,103.13333129882812],[407.6666717529297,103.13333129882812],[407.6666717529297,104.13333129882812],[408.6666717529297,105.13333129882812],[409.6666717529297,105.13333129882812],[409.6666717529297,106.13333129882812],[409.6666717529297,107.13333129882812],[409.6666717529297,108.13333129882812],[410.6666717529297,109.13333129882812],[410.6666717529297,110.13333129882812],[410.6666717529297,111.13333129882812],[410.6666717529297,112.13333129882812],[410.6666717529297,113.13333129882812],[410.6666717529297,113.13333129882812],[410.6666717529297,114.13333129882812],[410.6666717529297,115.13333129882812],[410.6666717529297,115.13333129882812],[410.6666717529297,116.13333129882812],[410.6666717529297,117.13333129882812],[410.6666717529297,117.13333129882812],[410.6666717529297,118.13333129882812],[410.6666717529297,119.13333129882812],[408.6666717529297,123.13333129882812],[407.6666717529297,124.13333129882812],[407.6666717529297,126.13333129882812],[407.6666717529297,127.13333129882812],[405.6666717529297,129.13333129882812],[405.6666717529297,131.13333129882812],[403.6666717529297,131.13333129882812],[403.6666717529297,133.13333129882812],[398.6666717529297,145.13333129882812],[397.6666717529297,147.13333129882812],[397.6666717529297,147.13333129882812],[396.6666717529297,149.13333129882812],[395.6666717529297,151.13333129882812],[395.6666717529297,152.13333129882812],[395.6666717529297,153.13333129882812],[395.6666717529297,155.13333129882812],[394.6666717529297,156.13333129882812],[394.6666717529297,158.13333129882812],[393.6666717529297,159.13333129882812],[392.6666717529297,161.13333129882812],[392.6666717529297,162.13333129882812],[391.6666717529297,163.13333129882812],[391.6666717529297,164.13333129882812],[391.6666717529297,165.13333129882812],[390.6666717529297,165.13333129882812],[390.6666717529297,166.13333129882812],[390.6666717529297,167.13333129882812],[389.6666717529297,167.13333129882812],[389.6666717529297,167.13333129882812],[389.6666717529297,167.13333129882812],[389.6666717529297,168.13333129882812],[388.6666717529297,169.13333129882812],[387.6666717529297,169.13333129882812],[387.6666717529297,169.13333129882812],[386.6666717529297,170.13333129882812],[385.6666717529297,171.13333129882812],[382.6666717529297,173.13333129882812],[381.6666717529297,173.13333129882812],[378.6666717529297,175.13333129882812],[377.6666717529297,176.13333129882812],[373.6666717529297,178.13333129882812],[372.6666717529297,179.13333129882812],[367.6666717529297,181.13333129882812],[365.6666717529297,181.13333129882812],[363.6666717529297,181.13333129882812],[362.6666717529297,181.13333129882812],[360.6666717529297,181.13333129882812],[359.6666717529297,181.13333129882812],[357.6666717529297,182.13333129882812],[355.6666717529297,182.13333129882812],[351.6666717529297,182.13333129882812],[348.6666717529297,182.13333129882812],[345.6666717529297,182.13333129882812],[343.6666717529297,182.13333129882812],[341.6666717529297,181.13333129882812],[340.6666717529297,181.13333129882812],[339.6666717529297,180.13333129882812],[338.6666717529297,179.13333129882812],[337.6666717529297,179.13333129882812],[336.6666717529297,179.13333129882812],[336.6666717529297,179.13333129882812],[335.6666717529297,178.13333129882812],[335.6666717529297,177.13333129882812],[334.6666717529297,177.13333129882812],[334.6666717529297,176.13333129882812],[333.6666717529297,175.13333129882812],[333.6666717529297,174.13333129882812],[332.6666717529297,173.13333129882812],[332.6666717529297,172.13333129882812],[331.6666717529297,171.13333129882812],[331.6666717529297,170.13333129882812],[331.6666717529297,169.13333129882812],[330.6666717529297,169.13333129882812],[330.6666717529297,168.13333129882812],[329.6666717529297,168.13333129882812],[329.6666717529297,167.13333129882812],[329.6666717529297,167.13333129882812],[329.6666717529297,165.13333129882812],[329.6666717529297,164.13333129882812],[328.6666717529297,164.13333129882812],[328.6666717529297,163.13333129882812],[327.6666717529297,161.13333129882812],[327.6666717529297,159.13333129882812],[327.6666717529297,159.13333129882812],[327.6666717529297,157.13333129882812],[326.6666717529297,155.13333129882812],[326.6666717529297,154.13333129882812],[325.6666717529297,153.13333129882812],[325.6666717529297,152.13333129882812],[325.6666717529297,150.13333129882812],[324.6666717529297,149.13333129882812],[324.6666717529297,147.13333129882812],[323.6666717529297,145.13333129882812],[322.6666717529297,143.13333129882812],[321.6666717529297,142.13333129882812],[321.6666717529297,140.13333129882812],[320.6666717529297,138.13333129882812],[319.6666717529297,135.13333129882812],[319.6666717529297,133.13333129882812],[318.6666717529297,131.13333129882812],[317.6666717529297,131.13333129882812],[317.6666717529297,128.13333129882812],[317.6666717529297,127.13333129882812],[316.6666717529297,125.13333129882812],[315.6666717529297,124.13333129882812],[315.6666717529297,123.13333129882812],[314.6666717529297,121.13333129882812],[314.6666717529297,119.13333129882812],[314.6666717529297,117.13333129882812],[314.6666717529297,116.13333129882812],[314.6666717529297,115.13333129882812],[314.6666717529297,113.13333129882812],[314.6666717529297,112.13333129882812],[314.6666717529297,111.13333129882812],[314.6666717529297,110.13333129882812],[314.6666717529297,109.13333129882812],[314.6666717529297,108.13333129882812],[314.6666717529297,107.13333129882812],[314.6666717529297,107.13333129882812],[314.6666717529297,106.13333129882812],[315.6666717529297,105.13333129882812],[315.6666717529297,105.13333129882812],[316.6666717529297,104.13333129882812],[317.6666717529297,104.13333129882812],[319.6666717529297,103.13333129882812],[321.6666717529297,103.13333129882812],[323.6666717529297,103.13333129882812],[325.6666717529297,101.13333129882812],[327.6666717529297,101.13333129882812],[329.6666717529297,101.13333129882812],[331.6666717529297,100.13333129882812],[331.6666717529297,100.13333129882812],[334.6666717529297,100.13333129882812],[335.6666717529297,100.13333129882812],[336.6666717529297,100.13333129882812],[338.6666717529297,100.13333129882812],[339.6666717529297,99.13333129882812],[340.6666717529297,99.13333129882812],[341.6666717529297,99.13333129882812],[342.6666717529297,99.13333129882812],[343.6666717529297,99.13333129882812],[343.6666717529297,99.13333129882812],[344.6666717529297,99.13333129882812],[346.6666717529297,99.13333129882812],[347.6666717529297,99.13333129882812],[347.6666717529297,98.13333129882812],[347.6666717529297,97.13333129882812],[348.6666717529297,97.13333129882812],[393.6666717529297,100.13333129882812],[395.6666717529297,101.13333129882812],[398.6666717529297,101.13333129882812],[399.6666717529297,102.13333129882812],[400.6666717529297,102.13333129882812],[401.6666717529297,102.13333129882812],[401.6666717529297,102.13333129882812],[402.6666717529297,102.13333129882812],[403.6666717529297,102.13333129882812],[403.6666717529297,103.13333129882812],[403.6666717529297,105.13333129882812],[401.6666717529297,108.13333129882812],[399.6666717529297,111.13333129882812],[395.6666717529297,117.13333129882812],[390.6666717529297,124.13333129882812],[388.6666717529297,127.13333129882812],[385.6666717529297,131.13333129882812],[383.6666717529297,133.13333129882812],[379.6666717529297,141.13333129882812],[377.6666717529297,145.13333129882812],[375.6666717529297,147.13333129882812],[373.6666717529297,151.13333129882812],[373.6666717529297,153.13333129882812],[371.6666717529297,155.13333129882812],[370.6666717529297,156.13333129882812],[369.6666717529297,157.13333129882812],[368.6666717529297,158.13333129882812],[367.6666717529297,159.13333129882812],[365.6666717529297,161.13333129882812],[363.6666717529297,164.13333129882812],[359.6666717529297,167.13333129882812],[357.6666717529297,169.13333129882812],[355.6666717529297,170.13333129882812],[353.6666717529297,171.13333129882812],[352.6666717529297,171.13333129882812],[351.6666717529297,171.13333129882812],[350.6666717529297,171.13333129882812],[348.6666717529297,169.13333129882812],[347.6666717529297,167.13333129882812],[346.6666717529297,167.13333129882812],[344.6666717529297,165.13333129882812],[343.6666717529297,162.13333129882812],[342.6666717529297,160.13333129882812],[341.6666717529297,157.13333129882812],[339.6666717529297,153.13333129882812],[338.6666717529297,151.13333129882812],[337.6666717529297,147.13333129882812],[335.6666717529297,145.13333129882812],[333.6666717529297,141.13333129882812],[333.6666717529297,139.13333129882812],[331.6666717529297,137.13333129882812],[330.6666717529297,134.13333129882812],[329.6666717529297,131.13333129882812],[327.6666717529297,128.13333129882812],[327.6666717529297,127.13333129882812],[325.6666717529297,125.13333129882812],[325.6666717529297,122.13333129882812],[324.6666717529297,121.13333129882812],[323.6666717529297,120.13333129882812],[323.6666717529297,119.13333129882812],[323.6666717529297,117.13333129882812],[322.6666717529297,116.13333129882812],[321.6666717529297,115.13333129882812],[321.6666717529297,114.13333129882812],[320.6666717529297,113.13333129882812],[319.6666717529297,113.13333129882812],[319.6666717529297,112.13333129882812],[319.6666717529297,111.13333129882812],[319.6666717529297,111.13333129882812],[320.6666717529297,111.13333129882812],[321.6666717529297,111.13333129882812],[323.6666717529297,111.13333129882812],[325.6666717529297,111.13333129882812],[330.6666717529297,110.13333129882812],[336.6666717529297,109.13333129882812],[341.6666717529297,107.13333129882812],[352.6666717529297,105.13333129882812],[358.6666717529297,105.13333129882812],[363.6666717529297,104.13333129882812],[369.6666717529297,103.13333129882812],[376.6666717529297,102.13333129882812],[379.6666717529297,102.13333129882812],[382.6666717529297,102.13333129882812],[384.6666717529297,102.13333129882812],[387.6666717529297,102.13333129882812],[389.6666717529297,102.13333129882812],[390.6666717529297,102.13333129882812],[391.6666717529297,102.13333129882812],[392.6666717529297,102.13333129882812],[393.6666717529297,102.13333129882812],[395.6666717529297,102.13333129882812],[395.6666717529297,102.13333129882812],[396.6666717529297,103.13333129882812],[396.6666717529297,103.13333129882812],[397.6666717529297,105.13333129882812],[397.6666717529297,105.13333129882812],[397.6666717529297,108.13333129882812],[397.6666717529297,116.13333129882812],[396.6666717529297,122.13333129882812],[395.6666717529297,127.13333129882812],[393.6666717529297,132.13333129882812],[391.6666717529297,137.13333129882812],[389.6666717529297,141.13333129882812],[387.6666717529297,146.13333129882812],[384.6666717529297,150.13333129882812],[380.6666717529297,158.13333129882812],[379.6666717529297,160.13333129882812],[377.6666717529297,163.13333129882812],[376.6666717529297,164.13333129882812],[375.6666717529297,165.13333129882812],[374.6666717529297,166.13333129882812],[372.6666717529297,167.13333129882812],[371.6666717529297,168.13333129882812],[370.6666717529297,168.13333129882812],[369.6666717529297,168.13333129882812],[369.6666717529297,168.13333129882812],[368.6666717529297,168.13333129882812],[367.6666717529297,167.13333129882812],[367.6666717529297,167.13333129882812],[366.6666717529297,167.13333129882812],[365.6666717529297,166.13333129882812],[365.6666717529297,165.13333129882812],[364.6666717529297,165.13333129882812],[363.6666717529297,165.13333129882812],[363.6666717529297,165.13333129882812],[363.6666717529297,163.13333129882812],[362.6666717529297,162.13333129882812],[362.6666717529297,159.13333129882812],[362.6666717529297,157.13333129882812],[362.6666717529297,155.13333129882812],[362.6666717529297,151.13333129882812],[362.6666717529297,148.13333129882812],[363.6666717529297,145.13333129882812],[370.6666717529297,129.13333129882812],[375.6666717529297,117.13333129882812],[379.6666717529297,111.13333129882812],[381.6666717529297,107.13333129882812],[383.6666717529297,103.13333129882812],[384.6666717529297,101.13333129882812],[385.6666717529297,100.13333129882812],[385.6666717529297,99.13333129882812],[385.6666717529297,98.13333129882812],[383.6666717529297,100.13333129882812],[381.6666717529297,101.13333129882812],[378.6666717529297,105.13333129882812],[373.6666717529297,110.13333129882812],[364.6666717529297,122.13333129882812],[359.6666717529297,129.13333129882812],[354.6666717529297,137.13333129882812],[352.6666717529297,142.13333129882812],[348.6666717529297,152.13333129882812],[346.6666717529297,161.13333129882812],[344.6666717529297,167.13333129882812],[342.6666717529297,173.13333129882812],[339.6666717529297,181.13333129882812],[338.6666717529297,182.13333129882812],[337.6666717529297,182.13333129882812],[338.6666717529297,180.13333129882812],[339.6666717529297,176.13333129882812],[341.6666717529297,168.13333129882812],[348.6666717529297,153.13333129882812],[355.6666717529297,133.13333129882812],[359.6666717529297,124.13333129882812],[363.6666717529297,118.13333129882812],[365.6666717529297,114.13333129882812],[367.6666717529297,111.13333129882812],[369.6666717529297,110.13333129882812],[376.6666717529297,105.13333129882812],[381.6666717529297,103.13333129882812],[385.6666717529297,99.13333129882812],[389.6666717529297,97.13333129882812],[390.6666717529297,95.13333129882812],[391.6666717529297,95.13333129882812],[392.6666717529297,95.13333129882812],[392.6666717529297,97.13333129882812],[392.6666717529297,99.13333129882812],[387.6666717529297,113.13333129882812],[384.6666717529297,118.13333129882812],[377.6666717529297,128.13333129882812],[376.6666717529297,131.13333129882812],[373.6666717529297,132.13333129882812],[372.6666717529297,133.13333129882812],[371.6666717529297,134.13333129882812],[370.6666717529297,135.13333129882812],[368.6666717529297,136.13333129882812],[366.6666717529297,137.13333129882812],[363.6666717529297,139.13333129882812],[360.6666717529297,141.13333129882812],[358.6666717529297,143.13333129882812],[357.6666717529297,145.13333129882812],[355.6666717529297,148.13333129882812],[353.6666717529297,152.13333129882812],[350.6666717529297,157.13333129882812],[350.6666717529297,159.13333129882812],[349.6666717529297,161.13333129882812],[349.6666717529297,161.13333129882812],[349.6666717529297,162.13333129882812],[350.6666717529297,160.13333129882812],[351.6666717529297,155.13333129882812],[352.6666717529297,146.13333129882812],[352.6666717529297,143.13333129882812],[352.6666717529297,138.13333129882812],[352.6666717529297,135.13333129882812],[351.6666717529297,128.13333129882812],[351.6666717529297,125.13333129882812],[349.6666717529297,121.13333129882812],[349.6666717529297,120.13333129882812],[348.6666717529297,118.13333129882812],[347.6666717529297,117.13333129882812],[347.6666717529297,116.13333129882812],[346.6666717529297,116.13333129882812],[345.6666717529297,115.13333129882812],[344.6666717529297,115.13333129882812],[343.6666717529297,115.13333129882812],[340.6666717529297,118.13333129882812],[338.6666717529297,121.13333129882812],[337.6666717529297,123.13333129882812],[335.6666717529297,129.13333129882812],[332.6666717529297,135.13333129882812],[332.6666717529297,136.13333129882812],[333.6666717529297,136.13333129882812],[334.6666717529297,136.13333129882812],[336.6666717529297,135.13333129882812],[337.6666717529297,133.13333129882812],[339.6666717529297,129.13333129882812],[342.6666717529297,125.13333129882812],[351.6666717529297,118.13333129882812],[353.6666717529297,117.13333129882812],[353.6666717529297,116.13333129882812],[354.6666717529297,115.13333129882812],[355.6666717529297,115.13333129882812],[355.6666717529297,115.13333129882812],[355.6666717529297,114.13333129882812],[355.6666717529297,113.13333129882812],[355.6666717529297,113.13333129882812],[355.6666717529297,112.13333129882812],[355.6666717529297,112.13333129882812],[354.6666717529297,113.13333129882812],[353.6666717529297,117.13333129882812],[352.6666717529297,122.13333129882812],[351.6666717529297,127.13333129882812],[351.6666717529297,132.13333129882812],[349.6666717529297,139.13333129882812],[349.6666717529297,143.13333129882812],[349.6666717529297,143.13333129882812],[349.6666717529297,146.13333129882812],[348.6666717529297,147.13333129882812],[347.6666717529297,148.13333129882812],[346.6666717529297,148.13333129882812],[343.6666717529297,148.13333129882812],[343.6666717529297,147.13333129882812],[341.6666717529297,145.13333129882812],[341.6666717529297,142.13333129882812],[340.6666717529297,140.13333129882812],[340.6666717529297,139.13333129882812],[340.6666717529297,137.13333129882812],[340.6666717529297,137.13333129882812],[340.6666717529297,136.13333129882812],[341.6666717529297,136.13333129882812],[341.6666717529297,136.13333129882812],[342.6666717529297,136.13333129882812],[343.6666717529297,136.13333129882812],[343.6666717529297,136.13333129882812],[344.6666717529297,136.13333129882812],[345.6666717529297,136.13333129882812],[343.6666717529297,135.13333129882812],[343.6666717529297,135.13333129882812],[341.6666717529297,135.13333129882812],[345.6666717529297,135.13333129882812]]},{\"color\":\"#05fafa\",\"size\":15,\"width\":480,\"height\":480,\"stroke\":[[278.6666717529297,261.1333312988281],[277.6666717529297,261.1333312988281],[277.6666717529297,261.1333312988281],[277.6666717529297,260.1333312988281],[277.6666717529297,259.1333312988281],[277.6666717529297,259.1333312988281],[277.6666717529297,258.1333312988281],[277.6666717529297,257.1333312988281],[277.6666717529297,257.1333312988281],[277.6666717529297,256.1333312988281],[277.6666717529297,255.13333129882812],[277.6666717529297,255.13333129882812],[278.6666717529297,254.13333129882812],[279.6666717529297,253.13333129882812],[280.6666717529297,253.13333129882812],[281.6666717529297,253.13333129882812],[281.6666717529297,252.13333129882812],[281.6666717529297,251.13333129882812],[282.6666717529297,251.13333129882812],[282.6666717529297,250.13333129882812],[283.6666717529297,250.13333129882812],[283.6666717529297,249.13333129882812],[284.6666717529297,249.13333129882812],[285.6666717529297,249.13333129882812],[285.6666717529297,248.13333129882812],[286.6666717529297,248.13333129882812],[287.6666717529297,248.13333129882812],[287.6666717529297,248.13333129882812],[288.6666717529297,248.13333129882812],[289.6666717529297,248.13333129882812],[289.6666717529297,248.13333129882812],[290.6666717529297,248.13333129882812],[291.6666717529297,248.13333129882812],[291.6666717529297,249.13333129882812],[292.6666717529297,251.13333129882812],[292.6666717529297,251.13333129882812],[292.6666717529297,252.13333129882812],[292.6666717529297,253.13333129882812],[292.6666717529297,253.13333129882812],[292.6666717529297,254.13333129882812],[292.6666717529297,255.13333129882812],[292.6666717529297,255.13333129882812],[292.6666717529297,256.1333312988281],[292.6666717529297,257.1333312988281],[292.6666717529297,258.1333312988281],[292.6666717529297,259.1333312988281],[291.6666717529297,260.1333312988281],[291.6666717529297,262.1333312988281],[290.6666717529297,263.1333312988281],[289.6666717529297,265.1333312988281],[289.6666717529297,265.1333312988281],[289.6666717529297,267.1333312988281],[288.6666717529297,268.1333312988281],[287.6666717529297,269.1333312988281],[287.6666717529297,269.1333312988281],[285.6666717529297,272.1333312988281],[285.6666717529297,272.1333312988281],[283.6666717529297,273.1333312988281],[282.6666717529297,274.1333312988281],[282.6666717529297,275.1333312988281],[281.6666717529297,275.1333312988281],[281.6666717529297,275.1333312988281]]},{\"color\":\"#05fafa\",\"size\":15,\"width\":480,\"height\":480,\"stroke\":[[445.6666717529297,255.13333129882812],[444.6666717529297,255.13333129882812],[443.6666717529297,255.13333129882812],[441.6666717529297,255.13333129882812],[439.6666717529297,257.1333312988281],[439.6666717529297,259.1333312988281],[437.6666717529297,261.1333312988281],[435.6666717529297,263.1333312988281],[433.6666717529297,267.1333312988281],[432.6666717529297,268.1333312988281],[431.6666717529297,270.1333312988281],[430.6666717529297,272.1333312988281],[429.6666717529297,273.1333312988281],[429.6666717529297,275.1333312988281],[428.6666717529297,275.1333312988281],[427.6666717529297,276.1333312988281],[427.6666717529297,277.1333312988281],[427.6666717529297,277.1333312988281],[427.6666717529297,278.1333312988281],[427.6666717529297,279.1333312988281],[428.6666717529297,279.1333312988281],[429.6666717529297,278.1333312988281],[430.6666717529297,276.1333312988281],[431.6666717529297,274.1333312988281],[433.6666717529297,272.1333312988281],[434.6666717529297,271.1333312988281],[437.6666717529297,268.1333312988281],[438.6666717529297,267.1333312988281],[440.6666717529297,265.1333312988281],[441.6666717529297,265.1333312988281],[441.6666717529297,265.1333312988281],[441.6666717529297,264.1333312988281],[442.6666717529297,263.1333312988281],[442.6666717529297,265.1333312988281],[442.6666717529297,266.1333312988281],[441.6666717529297,269.1333312988281],[441.6666717529297,269.1333312988281],[440.6666717529297,270.1333312988281],[439.6666717529297,271.1333312988281],[439.6666717529297,271.1333312988281],[439.6666717529297,271.1333312988281],[439.6666717529297,272.1333312988281],[438.6666717529297,273.1333312988281],[438.6666717529297,274.1333312988281],[437.6666717529297,275.1333312988281],[437.6666717529297,276.1333312988281],[437.6666717529297,277.1333312988281],[436.6666717529297,279.1333312988281],[436.6666717529297,279.1333312988281],[436.6666717529297,280.1333312988281],[435.6666717529297,280.1333312988281],[435.6666717529297,279.1333312988281],[434.6666717529297,277.1333312988281],[433.6666717529297,273.1333312988281],[432.6666717529297,269.1333312988281],[431.6666717529297,265.1333312988281],[430.6666717529297,263.1333312988281],[429.6666717529297,262.1333312988281],[429.6666717529297,261.1333312988281],[429.6666717529297,259.1333312988281],[429.6666717529297,258.1333312988281],[429.6666717529297,257.1333312988281],[429.6666717529297,257.1333312988281],[428.6666717529297,257.1333312988281],[428.6666717529297,256.1333312988281],[428.6666717529297,255.13333129882812],[428.6666717529297,255.13333129882812],[427.6666717529297,254.13333129882812],[427.6666717529297,253.13333129882812],[427.6666717529297,253.13333129882812],[427.6666717529297,253.13333129882812],[428.6666717529297,253.13333129882812],[429.6666717529297,253.13333129882812],[430.6666717529297,253.13333129882812],[433.6666717529297,252.13333129882812],[433.6666717529297,252.13333129882812],[434.6666717529297,251.13333129882812],[435.6666717529297,251.13333129882812],[436.6666717529297,250.13333129882812],[436.6666717529297,249.13333129882812],[437.6666717529297,249.13333129882812],[437.6666717529297,249.13333129882812],[437.6666717529297,249.13333129882812],[436.6666717529297,249.13333129882812],[435.6666717529297,250.13333129882812],[434.6666717529297,251.13333129882812],[432.6666717529297,252.13333129882812],[429.6666717529297,253.13333129882812],[427.6666717529297,255.13333129882812],[426.6666717529297,257.1333312988281],[425.6666717529297,257.1333312988281],[425.6666717529297,257.1333312988281],[425.6666717529297,257.1333312988281],[424.6666717529297,258.1333312988281],[423.6666717529297,259.1333312988281],[422.6666717529297,260.1333312988281],[422.6666717529297,261.1333312988281],[421.6666717529297,261.1333312988281],[421.6666717529297,262.1333312988281],[421.6666717529297,263.1333312988281],[421.6666717529297,263.1333312988281],[421.6666717529297,262.1333312988281],[421.6666717529297,261.1333312988281],[421.6666717529297,260.1333312988281],[421.6666717529297,259.1333312988281],[421.6666717529297,259.1333312988281],[422.6666717529297,259.1333312988281]]},{\"color\":\"#05fafa\",\"size\":15,\"width\":480,\"height\":480,\"stroke\":[[51.66667175292969,246.13333129882812],[51.66667175292969,247.13333129882812],[51.66667175292969,247.13333129882812],[51.66667175292969,250.13333129882812],[51.66667175292969,257.1333312988281],[51.66667175292969,261.1333312988281],[51.66667175292969,265.1333312988281],[50.66667175292969,269.1333312988281],[49.66667175292969,271.1333312988281],[49.66667175292969,271.1333312988281],[48.66667175292969,272.1333312988281],[47.66667175292969,273.1333312988281],[45.66667175292969,275.1333312988281],[43.66667175292969,275.1333312988281],[41.66667175292969,276.1333312988281],[41.66667175292969,276.1333312988281],[39.66667175292969,276.1333312988281],[37.66667175292969,276.1333312988281],[36.66667175292969,276.1333312988281],[35.66667175292969,276.1333312988281],[33.66667175292969,276.1333312988281],[33.66667175292969,275.1333312988281],[32.66667175292969,275.1333312988281],[31.666671752929688,273.1333312988281],[29.666671752929688,273.1333312988281],[27.666671752929688,271.1333312988281],[26.666671752929688,269.1333312988281],[24.666671752929688,267.1333312988281],[23.666671752929688,264.1333312988281],[23.666671752929688,261.1333312988281],[23.666671752929688,259.1333312988281],[23.666671752929688,255.13333129882812],[23.666671752929688,253.13333129882812],[25.666671752929688,252.13333129882812],[25.666671752929688,251.13333129882812],[33.66667175292969,249.13333129882812],[35.66667175292969,248.13333129882812],[36.66667175292969,248.13333129882812],[39.66667175292969,248.13333129882812],[40.66667175292969,248.13333129882812],[41.66667175292969,248.13333129882812],[43.66667175292969,248.13333129882812],[44.66667175292969,249.13333129882812],[44.66667175292969,251.13333129882812],[45.66667175292969,255.13333129882812],[45.66667175292969,257.1333312988281],[45.66667175292969,264.1333312988281],[43.66667175292969,266.1333312988281],[43.66667175292969,267.1333312988281],[40.66667175292969,269.1333312988281],[37.66667175292969,270.1333312988281],[35.66667175292969,271.1333312988281],[35.66667175292969,271.1333312988281],[34.66667175292969,271.1333312988281],[34.66667175292969,269.1333312988281],[34.66667175292969,260.1333312988281],[34.66667175292969,241.13333129882812],[34.66667175292969,237.13333129882812],[34.66667175292969,235.13333129882812],[34.66667175292969,235.13333129882812],[34.66667175292969,240.13333129882812],[35.66667175292969,245.13333129882812],[35.66667175292969,255.13333129882812],[35.66667175292969,258.1333312988281],[35.66667175292969,265.1333312988281],[34.66667175292969,267.1333312988281],[33.66667175292969,269.1333312988281],[33.66667175292969,271.1333312988281],[33.66667175292969,271.1333312988281],[36.66667175292969,271.1333312988281],[40.66667175292969,271.1333312988281],[47.66667175292969,268.1333312988281],[63.66667175292969,263.1333312988281],[67.66667175292969,261.1333312988281],[69.66667175292969,259.1333312988281],[71.66667175292969,258.1333312988281],[71.66667175292969,257.1333312988281],[71.66667175292969,257.1333312988281],[71.66667175292969,256.1333312988281],[71.66667175292969,255.13333129882812],[71.66667175292969,255.13333129882812],[71.66667175292969,253.13333129882812],[70.66667175292969,253.13333129882812],[67.66667175292969,251.13333129882812],[65.66667175292969,251.13333129882812],[63.66667175292969,250.13333129882812],[61.66667175292969,250.13333129882812],[59.66667175292969,250.13333129882812],[57.66667175292969,250.13333129882812],[55.66667175292969,250.13333129882812],[55.66667175292969,250.13333129882812],[53.66667175292969,250.13333129882812],[51.66667175292969,250.13333129882812],[51.66667175292969,250.13333129882812],[50.66667175292969,249.13333129882812],[48.66667175292969,249.13333129882812],[47.66667175292969,249.13333129882812],[46.66667175292969,248.13333129882812],[45.66667175292969,248.13333129882812],[43.66667175292969,247.13333129882812],[42.66667175292969,247.13333129882812],[41.66667175292969,246.13333129882812],[41.66667175292969,245.13333129882812],[41.66667175292969,245.13333129882812],[41.66667175292969,244.13333129882812],[41.66667175292969,244.13333129882812],[42.66667175292969,244.13333129882812],[43.66667175292969,244.13333129882812],[43.66667175292969,244.13333129882812],[44.66667175292969,244.13333129882812],[45.66667175292969,244.13333129882812],[45.66667175292969,244.13333129882812],[46.66667175292969,244.13333129882812],[47.66667175292969,244.13333129882812],[47.66667175292969,244.13333129882812]]},{\"color\":\"#05fafa\",\"size\":15,\"width\":480,\"height\":480,\"stroke\":[[205.6666717529297,249.13333129882812],[205.6666717529297,249.13333129882812],[203.6666717529297,251.13333129882812],[200.6666717529297,255.13333129882812],[195.6666717529297,263.1333312988281],[195.6666717529297,264.1333312988281],[193.6666717529297,267.1333312988281],[192.6666717529297,269.1333312988281],[191.6666717529297,272.1333312988281],[190.6666717529297,274.1333312988281],[189.6666717529297,276.1333312988281],[189.6666717529297,279.1333312988281],[187.6666717529297,280.1333312988281],[187.6666717529297,283.1333312988281],[187.6666717529297,284.1333312988281],[187.6666717529297,285.1333312988281],[187.6666717529297,285.1333312988281],[188.6666717529297,283.1333312988281],[191.6666717529297,276.1333312988281],[192.6666717529297,273.1333312988281],[193.6666717529297,270.1333312988281],[193.6666717529297,266.1333312988281],[194.6666717529297,263.1333312988281],[195.6666717529297,261.1333312988281],[195.6666717529297,259.1333312988281],[195.6666717529297,258.1333312988281],[195.6666717529297,257.1333312988281],[196.6666717529297,257.1333312988281],[196.6666717529297,256.1333312988281],[196.6666717529297,255.13333129882812],[197.6666717529297,255.13333129882812],[199.6666717529297,263.1333312988281],[199.6666717529297,268.1333312988281],[199.6666717529297,279.1333312988281],[199.6666717529297,281.1333312988281],[199.6666717529297,282.1333312988281],[199.6666717529297,283.1333312988281],[199.6666717529297,280.1333312988281],[199.6666717529297,276.1333312988281],[200.6666717529297,253.13333129882812],[201.6666717529297,244.13333129882812],[203.6666717529297,234.13333129882812],[203.6666717529297,232.13333129882812],[203.6666717529297,231.13333129882812],[203.6666717529297,230.13333129882812],[202.6666717529297,231.13333129882812],[201.6666717529297,233.13333129882812],[199.6666717529297,236.13333129882812],[195.6666717529297,242.13333129882812],[191.6666717529297,251.13333129882812],[189.6666717529297,255.13333129882812],[187.6666717529297,259.1333312988281],[185.6666717529297,261.1333312988281],[184.6666717529297,262.1333312988281],[183.6666717529297,263.1333312988281],[183.6666717529297,263.1333312988281],[181.6666717529297,264.1333312988281],[181.6666717529297,264.1333312988281],[180.6666717529297,264.1333312988281],[179.6666717529297,264.1333312988281],[179.6666717529297,263.1333312988281],[179.6666717529297,262.1333312988281],[179.6666717529297,261.1333312988281],[179.6666717529297,260.1333312988281],[183.6666717529297,257.1333312988281],[187.6666717529297,251.13333129882812],[189.6666717529297,249.13333129882812],[190.6666717529297,248.13333129882812],[191.6666717529297,247.13333129882812],[192.6666717529297,245.13333129882812],[193.6666717529297,245.13333129882812],[193.6666717529297,245.13333129882812],[192.6666717529297,245.13333129882812],[191.6666717529297,245.13333129882812],[188.6666717529297,245.13333129882812],[185.6666717529297,247.13333129882812],[181.6666717529297,248.13333129882812],[180.6666717529297,248.13333129882812],[179.6666717529297,248.13333129882812]]},{\"color\":\"#05fafa\",\"size\":15,\"width\":480,\"height\":480,\"stroke\":[[63.66667175292969,107.13333129882812],[64.66667175292969,107.13333129882812],[65.66667175292969,107.13333129882812],[65.66667175292969,106.13333129882812],[65.66667175292969,105.13333129882812],[66.66667175292969,105.13333129882812],[66.66667175292969,104.13333129882812],[67.66667175292969,103.13333129882812],[67.66667175292969,103.13333129882812],[67.66667175292969,101.13333129882812],[68.66667175292969,101.13333129882812],[69.66667175292969,101.13333129882812],[69.66667175292969,100.13333129882812],[70.66667175292969,99.13333129882812],[71.66667175292969,99.13333129882812],[71.66667175292969,98.13333129882812],[72.66667175292969,97.13333129882812],[73.66667175292969,97.13333129882812],[73.66667175292969,97.13333129882812],[75.66667175292969,97.13333129882812],[75.66667175292969,96.13333129882812],[75.66667175292969,95.13333129882812],[76.66667175292969,95.13333129882812],[76.66667175292969,94.13333129882812],[77.66667175292969,94.13333129882812],[78.66667175292969,93.13333129882812],[79.66667175292969,93.13333129882812],[79.66667175292969,93.13333129882812],[81.66667175292969,92.13333129882812],[81.66667175292969,92.13333129882812],[82.66667175292969,92.13333129882812],[83.66667175292969,92.13333129882812],[83.66667175292969,92.13333129882812],[84.66667175292969,92.13333129882812],[85.66667175292969,92.13333129882812],[86.66667175292969,91.13333129882812],[87.66667175292969,91.13333129882812],[87.66667175292969,91.13333129882812],[88.66667175292969,91.13333129882812],[89.66667175292969,91.13333129882812],[90.66667175292969,91.13333129882812],[91.66667175292969,91.13333129882812],[91.66667175292969,91.13333129882812],[93.66667175292969,91.13333129882812],[94.66667175292969,91.13333129882812],[95.66667175292969,90.13333129882812],[96.66667175292969,90.13333129882812],[97.66667175292969,90.13333129882812],[97.66667175292969,90.13333129882812],[98.66667175292969,89.13333129882812],[99.66667175292969,89.13333129882812],[99.66667175292969,89.13333129882812],[100.66667175292969,89.13333129882812],[101.66667175292969,89.13333129882812],[101.66667175292969,89.13333129882812],[102.66667175292969,89.13333129882812],[102.66667175292969,89.13333129882812]]},{\"color\":\"#05fafa\",\"size\":15,\"width\":480,\"height\":480,\"stroke\":[[133.6666717529297,85.13333129882812],[133.6666717529297,85.13333129882812],[134.6666717529297,85.13333129882812],[135.6666717529297,85.13333129882812],[136.6666717529297,85.13333129882812],[139.6666717529297,85.13333129882812],[140.6666717529297,86.13333129882812],[142.6666717529297,87.13333129882812],[144.6666717529297,88.13333129882812],[146.6666717529297,88.13333129882812],[147.6666717529297,89.13333129882812],[149.6666717529297,89.13333129882812],[149.6666717529297,89.13333129882812],[151.6666717529297,89.13333129882812],[152.6666717529297,90.13333129882812],[153.6666717529297,91.13333129882812],[154.6666717529297,91.13333129882812],[155.6666717529297,91.13333129882812],[156.6666717529297,91.13333129882812],[157.6666717529297,92.13333129882812],[158.6666717529297,92.13333129882812],[159.6666717529297,92.13333129882812],[159.6666717529297,92.13333129882812],[160.6666717529297,93.13333129882812],[160.6666717529297,93.13333129882812],[161.6666717529297,93.13333129882812],[161.6666717529297,93.13333129882812],[162.6666717529297,94.13333129882812],[163.6666717529297,94.13333129882812],[163.6666717529297,95.13333129882812],[163.6666717529297,95.13333129882812],[163.6666717529297,95.13333129882812],[164.6666717529297,95.13333129882812],[165.6666717529297,96.13333129882812],[165.6666717529297,96.13333129882812],[166.6666717529297,96.13333129882812],[167.6666717529297,96.13333129882812],[167.6666717529297,96.13333129882812],[167.6666717529297,97.13333129882812],[168.6666717529297,97.13333129882812],[169.6666717529297,97.13333129882812],[169.6666717529297,97.13333129882812],[169.6666717529297,97.13333129882812],[169.6666717529297,98.13333129882812],[170.6666717529297,98.13333129882812],[170.6666717529297,99.13333129882812]]},{\"color\":\"#3fc0c0\",\"size\":15,\"width\":480,\"height\":480,\"stroke\":[[77.66667175292969,257.1333312988281],[78.66667175292969,257.1333312988281],[78.66667175292969,259.1333312988281],[78.66667175292969,259.1333312988281],[78.66667175292969,260.1333312988281],[79.66667175292969,261.1333312988281],[79.66667175292969,261.1333312988281],[79.66667175292969,262.1333312988281],[79.66667175292969,263.1333312988281],[79.66667175292969,263.1333312988281],[79.66667175292969,263.1333312988281],[79.66667175292969,264.1333312988281],[80.66667175292969,265.1333312988281],[80.66667175292969,265.1333312988281],[81.66667175292969,266.1333312988281],[81.66667175292969,267.1333312988281],[82.66667175292969,267.1333312988281],[83.66667175292969,268.1333312988281],[83.66667175292969,269.1333312988281],[83.66667175292969,269.1333312988281],[83.66667175292969,269.1333312988281],[84.66667175292969,269.1333312988281],[84.66667175292969,270.1333312988281],[85.66667175292969,271.1333312988281],[85.66667175292969,271.1333312988281],[85.66667175292969,272.1333312988281],[86.66667175292969,273.1333312988281],[87.66667175292969,273.1333312988281],[87.66667175292969,273.1333312988281],[87.66667175292969,274.1333312988281],[88.66667175292969,275.1333312988281],[88.66667175292969,276.1333312988281],[88.66667175292969,277.1333312988281],[89.66667175292969,279.1333312988281],[89.66667175292969,279.1333312988281],[89.66667175292969,281.1333312988281],[89.66667175292969,282.1333312988281],[90.66667175292969,283.1333312988281],[90.66667175292969,283.1333312988281],[91.66667175292969,285.1333312988281],[91.66667175292969,285.1333312988281],[91.66667175292969,286.1333312988281],[92.66667175292969,286.1333312988281],[92.66667175292969,287.1333312988281],[92.66667175292969,287.1333312988281],[93.66667175292969,288.1333312988281],[93.66667175292969,289.1333312988281],[93.66667175292969,289.1333312988281],[93.66667175292969,289.1333312988281],[94.66667175292969,291.1333312988281],[95.66667175292969,293.1333312988281],[96.66667175292969,294.1333312988281],[97.66667175292969,296.1333312988281],[98.66667175292969,296.1333312988281],[99.66667175292969,297.1333312988281],[99.66667175292969,299.1333312988281],[99.66667175292969,300.1333312988281],[99.66667175292969,301.1333312988281],[99.66667175292969,301.1333312988281],[99.66667175292969,302.1333312988281],[99.66667175292969,303.1333312988281],[100.66667175292969,304.1333312988281],[101.66667175292969,306.1333312988281],[101.66667175292969,307.1333312988281],[102.66667175292969,308.1333312988281],[102.66667175292969,309.1333312988281],[103.66667175292969,309.1333312988281],[103.66667175292969,311.1333312988281],[103.66667175292969,312.1333312988281],[103.66667175292969,313.1333312988281],[103.66667175292969,313.1333312988281],[103.66667175292969,314.1333312988281],[103.66667175292969,315.1333312988281],[103.66667175292969,315.1333312988281],[103.66667175292969,316.1333312988281],[103.66667175292969,317.1333312988281],[103.66667175292969,318.1333312988281],[103.66667175292969,319.1333312988281],[103.66667175292969,319.1333312988281],[103.66667175292969,320.1333312988281],[103.66667175292969,321.1333312988281],[103.66667175292969,321.1333312988281],[103.66667175292969,322.1333312988281],[104.66667175292969,322.1333312988281],[104.66667175292969,323.1333312988281],[105.66667175292969,323.1333312988281],[105.66667175292969,325.1333312988281],[106.66667175292969,327.1333312988281],[106.66667175292969,329.1333312988281],[106.66667175292969,329.1333312988281],[106.66667175292969,331.1333312988281],[106.66667175292969,331.1333312988281],[106.66667175292969,333.1333312988281],[106.66667175292969,333.1333312988281],[106.66667175292969,334.1333312988281],[106.66667175292969,335.1333312988281],[106.66667175292969,335.1333312988281],[106.66667175292969,336.1333312988281],[106.66667175292969,337.1333312988281],[106.66667175292969,337.1333312988281],[106.66667175292969,338.1333312988281],[106.66667175292969,339.1333312988281],[105.66667175292969,339.1333312988281],[99.66667175292969,339.1333312988281],[92.66667175292969,337.1333312988281],[89.66667175292969,335.1333312988281],[85.66667175292969,331.1333312988281],[84.66667175292969,328.1333312988281],[84.66667175292969,327.1333312988281],[83.66667175292969,326.1333312988281],[83.66667175292969,325.1333312988281],[83.66667175292969,324.1333312988281],[83.66667175292969,323.1333312988281],[83.66667175292969,322.1333312988281],[83.66667175292969,319.1333312988281],[83.66667175292969,317.1333312988281],[83.66667175292969,315.1333312988281],[84.66667175292969,313.1333312988281],[85.66667175292969,307.1333312988281],[85.66667175292969,304.1333312988281],[85.66667175292969,301.1333312988281],[85.66667175292969,299.1333312988281],[85.66667175292969,297.1333312988281],[85.66667175292969,297.1333312988281],[85.66667175292969,295.1333312988281],[85.66667175292969,293.1333312988281],[85.66667175292969,291.1333312988281],[85.66667175292969,291.1333312988281],[85.66667175292969,289.1333312988281],[84.66667175292969,286.1333312988281],[83.66667175292969,284.1333312988281],[83.66667175292969,283.1333312988281],[82.66667175292969,281.1333312988281],[81.66667175292969,279.1333312988281],[81.66667175292969,279.1333312988281],[81.66667175292969,278.1333312988281],[81.66667175292969,277.1333312988281],[81.66667175292969,279.1333312988281],[81.66667175292969,280.1333312988281],[81.66667175292969,282.1333312988281],[82.66667175292969,289.1333312988281],[83.66667175292969,293.1333312988281],[83.66667175292969,304.1333312988281],[83.66667175292969,306.1333312988281],[83.66667175292969,308.1333312988281],[83.66667175292969,309.1333312988281],[89.66667175292969,324.1333312988281],[89.66667175292969,324.1333312988281],[91.66667175292969,324.1333312988281],[91.66667175292969,324.1333312988281],[92.66667175292969,324.1333312988281],[93.66667175292969,322.1333312988281],[93.66667175292969,321.1333312988281],[93.66667175292969,321.1333312988281],[93.66667175292969,319.1333312988281],[93.66667175292969,317.1333312988281],[93.66667175292969,317.1333312988281],[93.66667175292969,315.1333312988281],[94.66667175292969,315.1333312988281],[95.66667175292969,315.1333312988281],[95.66667175292969,314.1333312988281],[95.66667175292969,313.1333312988281],[95.66667175292969,311.1333312988281],[95.66667175292969,309.1333312988281],[95.66667175292969,309.1333312988281],[95.66667175292969,309.1333312988281]]},{\"color\":\"#3fc0c0\",\"size\":15,\"width\":480,\"height\":480,\"stroke\":[[125.66667175292969,307.1333312988281],[125.66667175292969,307.1333312988281],[125.66667175292969,306.1333312988281],[125.66667175292969,305.1333312988281],[125.66667175292969,304.1333312988281],[125.66667175292969,303.1333312988281],[125.66667175292969,303.1333312988281],[127.66667175292969,300.1333312988281],[129.6666717529297,298.1333312988281],[130.6666717529297,297.1333312988281],[131.6666717529297,295.1333312988281],[132.6666717529297,295.1333312988281],[133.6666717529297,293.1333312988281],[134.6666717529297,291.1333312988281],[136.6666717529297,289.1333312988281],[139.6666717529297,286.1333312988281],[141.6666717529297,285.1333312988281],[143.6666717529297,282.1333312988281],[145.6666717529297,282.1333312988281],[145.6666717529297,282.1333312988281],[147.6666717529297,281.1333312988281],[148.6666717529297,281.1333312988281],[149.6666717529297,281.1333312988281],[151.6666717529297,281.1333312988281],[153.6666717529297,281.1333312988281],[153.6666717529297,281.1333312988281],[155.6666717529297,281.1333312988281],[156.6666717529297,281.1333312988281],[157.6666717529297,281.1333312988281],[157.6666717529297,281.1333312988281],[157.6666717529297,281.1333312988281],[157.6666717529297,283.1333312988281],[157.6666717529297,285.1333312988281],[157.6666717529297,293.1333312988281],[153.6666717529297,301.1333312988281],[148.6666717529297,313.1333312988281],[145.6666717529297,321.1333312988281],[143.6666717529297,326.1333312988281],[141.6666717529297,329.1333312988281],[140.6666717529297,329.1333312988281],[139.6666717529297,331.1333312988281],[137.6666717529297,333.1333312988281],[136.6666717529297,334.1333312988281],[135.6666717529297,335.1333312988281],[133.6666717529297,337.1333312988281],[133.6666717529297,337.1333312988281],[132.6666717529297,338.1333312988281],[131.6666717529297,339.1333312988281],[131.6666717529297,337.1333312988281],[131.6666717529297,335.1333312988281],[131.6666717529297,329.1333312988281],[131.6666717529297,325.1333312988281],[133.6666717529297,314.1333312988281],[135.6666717529297,310.1333312988281],[136.6666717529297,303.1333312988281],[139.6666717529297,295.1333312988281],[139.6666717529297,293.1333312988281],[139.6666717529297,291.1333312988281],[139.6666717529297,289.1333312988281],[139.6666717529297,289.1333312988281],[139.6666717529297,291.1333312988281],[139.6666717529297,293.1333312988281],[137.6666717529297,299.1333312988281],[123.66667175292969,329.1333312988281],[113.66667175292969,354.1333312988281],[111.66667175292969,360.1333312988281],[109.66667175292969,363.1333312988281],[108.66667175292969,363.1333312988281],[108.66667175292969,363.1333312988281],[109.66667175292969,357.1333312988281],[112.66667175292969,349.1333312988281],[114.66667175292969,345.1333312988281],[120.66667175292969,335.1333312988281],[127.66667175292969,324.1333312988281],[133.6666717529297,315.1333312988281],[135.6666717529297,311.1333312988281],[143.6666717529297,303.1333312988281],[145.6666717529297,301.1333312988281],[147.6666717529297,298.1333312988281],[150.6666717529297,295.1333312988281],[153.6666717529297,292.1333312988281],[155.6666717529297,291.1333312988281],[155.6666717529297,289.1333312988281],[156.6666717529297,289.1333312988281],[157.6666717529297,289.1333312988281],[157.6666717529297,288.1333312988281],[157.6666717529297,287.1333312988281],[157.6666717529297,289.1333312988281],[157.6666717529297,291.1333312988281],[157.6666717529297,293.1333312988281],[156.6666717529297,295.1333312988281],[155.6666717529297,298.1333312988281],[151.6666717529297,307.1333312988281],[149.6666717529297,313.1333312988281],[148.6666717529297,318.1333312988281],[146.6666717529297,321.1333312988281],[144.6666717529297,325.1333312988281],[144.6666717529297,327.1333312988281],[143.6666717529297,328.1333312988281],[143.6666717529297,329.1333312988281],[142.6666717529297,330.1333312988281],[141.6666717529297,331.1333312988281],[141.6666717529297,331.1333312988281],[141.6666717529297,331.1333312988281],[141.6666717529297,332.1333312988281],[140.6666717529297,333.1333312988281],[140.6666717529297,333.1333312988281],[140.6666717529297,334.1333312988281],[140.6666717529297,335.1333312988281],[139.6666717529297,335.1333312988281],[139.6666717529297,337.1333312988281],[139.6666717529297,337.1333312988281],[138.6666717529297,338.1333312988281],[138.6666717529297,339.1333312988281],[137.6666717529297,340.1333312988281],[137.6666717529297,341.1333312988281],[137.6666717529297,343.1333312988281],[136.6666717529297,344.1333312988281],[136.6666717529297,345.1333312988281],[136.6666717529297,345.1333312988281],[135.6666717529297,347.1333312988281],[135.6666717529297,347.1333312988281],[135.6666717529297,348.1333312988281],[135.6666717529297,349.1333312988281],[135.6666717529297,348.1333312988281],[135.6666717529297,347.1333312988281],[135.6666717529297,346.1333312988281],[136.6666717529297,343.1333312988281],[141.6666717529297,337.1333312988281],[143.6666717529297,330.1333312988281],[145.6666717529297,325.1333312988281],[146.6666717529297,321.1333312988281],[147.6666717529297,319.1333312988281],[147.6666717529297,316.1333312988281],[148.6666717529297,315.1333312988281],[149.6666717529297,311.1333312988281],[149.6666717529297,307.1333312988281],[150.6666717529297,304.1333312988281],[151.6666717529297,299.1333312988281],[152.6666717529297,297.1333312988281],[154.6666717529297,291.1333312988281],[155.6666717529297,289.1333312988281],[156.6666717529297,283.1333312988281],[157.6666717529297,279.1333312988281],[158.6666717529297,278.1333312988281],[159.6666717529297,276.1333312988281],[159.6666717529297,275.1333312988281],[159.6666717529297,274.1333312988281],[159.6666717529297,273.1333312988281],[159.6666717529297,273.1333312988281],[159.6666717529297,272.1333312988281],[159.6666717529297,271.1333312988281],[159.6666717529297,272.1333312988281],[159.6666717529297,273.1333312988281],[159.6666717529297,273.1333312988281],[159.6666717529297,275.1333312988281],[159.6666717529297,275.1333312988281],[158.6666717529297,275.1333312988281],[157.6666717529297,277.1333312988281],[157.6666717529297,279.1333312988281],[156.6666717529297,281.1333312988281],[155.6666717529297,283.1333312988281],[155.6666717529297,283.1333312988281],[153.6666717529297,285.1333312988281],[152.6666717529297,288.1333312988281],[151.6666717529297,291.1333312988281],[148.6666717529297,295.1333312988281],[146.6666717529297,301.1333312988281],[144.6666717529297,305.1333312988281],[144.6666717529297,309.1333312988281],[143.6666717529297,313.1333312988281],[143.6666717529297,317.1333312988281],[141.6666717529297,325.1333312988281],[139.6666717529297,329.1333312988281],[139.6666717529297,332.1333312988281],[138.6666717529297,340.1333312988281],[138.6666717529297,342.1333312988281],[138.6666717529297,343.1333312988281],[137.6666717529297,344.1333312988281],[137.6666717529297,345.1333312988281],[137.6666717529297,345.1333312988281],[137.6666717529297,346.1333312988281],[135.6666717529297,347.1333312988281],[134.6666717529297,349.1333312988281],[133.6666717529297,351.1333312988281],[132.6666717529297,351.1333312988281],[132.6666717529297,352.1333312988281],[132.6666717529297,353.1333312988281],[132.6666717529297,353.1333312988281],[132.6666717529297,354.1333312988281],[132.6666717529297,357.1333312988281],[132.6666717529297,358.1333312988281],[132.6666717529297,359.1333312988281],[133.6666717529297,359.1333312988281],[133.6666717529297,359.1333312988281],[135.6666717529297,358.1333312988281],[138.6666717529297,356.1333312988281],[140.6666717529297,356.1333312988281],[142.6666717529297,355.1333312988281],[143.6666717529297,355.1333312988281],[145.6666717529297,353.1333312988281],[147.6666717529297,353.1333312988281],[147.6666717529297,351.1333312988281],[148.6666717529297,350.1333312988281],[148.6666717529297,349.1333312988281],[148.6666717529297,347.1333312988281],[148.6666717529297,346.1333312988281],[148.6666717529297,345.1333312988281],[148.6666717529297,343.1333312988281],[148.6666717529297,343.1333312988281],[148.6666717529297,342.1333312988281],[148.6666717529297,341.1333312988281],[148.6666717529297,340.1333312988281],[148.6666717529297,339.1333312988281],[148.6666717529297,339.1333312988281],[148.6666717529297,337.1333312988281],[148.6666717529297,337.1333312988281],[148.6666717529297,335.1333312988281],[147.6666717529297,335.1333312988281]]},{\"color\":\"#3fc0c0\",\"size\":15,\"width\":480,\"height\":480,\"stroke\":[[104.66667175292969,352.1333312988281],[103.66667175292969,352.1333312988281],[103.66667175292969,352.1333312988281],[101.66667175292969,351.1333312988281],[101.66667175292969,351.1333312988281],[101.66667175292969,349.1333312988281],[99.66667175292969,349.1333312988281],[99.66667175292969,348.1333312988281],[99.66667175292969,347.1333312988281],[99.66667175292969,347.1333312988281],[98.66667175292969,346.1333312988281],[97.66667175292969,345.1333312988281],[97.66667175292969,345.1333312988281],[96.66667175292969,345.1333312988281],[95.66667175292969,345.1333312988281],[94.66667175292969,344.1333312988281],[93.66667175292969,344.1333312988281],[93.66667175292969,344.1333312988281],[91.66667175292969,344.1333312988281],[89.66667175292969,344.1333312988281],[89.66667175292969,344.1333312988281],[88.66667175292969,344.1333312988281],[88.66667175292969,345.1333312988281],[87.66667175292969,346.1333312988281],[87.66667175292969,349.1333312988281],[87.66667175292969,350.1333312988281],[87.66667175292969,351.1333312988281],[87.66667175292969,351.1333312988281],[87.66667175292969,352.1333312988281],[88.66667175292969,353.1333312988281],[89.66667175292969,353.1333312988281],[89.66667175292969,353.1333312988281],[90.66667175292969,353.1333312988281],[91.66667175292969,353.1333312988281],[91.66667175292969,353.1333312988281],[93.66667175292969,353.1333312988281],[93.66667175292969,353.1333312988281],[95.66667175292969,353.1333312988281],[96.66667175292969,354.1333312988281],[97.66667175292969,355.1333312988281],[97.66667175292969,355.1333312988281],[97.66667175292969,356.1333312988281],[98.66667175292969,357.1333312988281],[99.66667175292969,357.1333312988281],[99.66667175292969,358.1333312988281],[100.66667175292969,359.1333312988281],[100.66667175292969,360.1333312988281],[100.66667175292969,361.1333312988281],[101.66667175292969,361.1333312988281],[100.66667175292969,361.1333312988281],[99.66667175292969,361.1333312988281],[97.66667175292969,360.1333312988281],[97.66667175292969,359.1333312988281],[95.66667175292969,359.1333312988281],[95.66667175292969,358.1333312988281],[94.66667175292969,358.1333312988281],[93.66667175292969,357.1333312988281],[93.66667175292969,357.1333312988281],[92.66667175292969,357.1333312988281],[91.66667175292969,357.1333312988281],[91.66667175292969,357.1333312988281],[90.66667175292969,357.1333312988281],[89.66667175292969,357.1333312988281],[89.66667175292969,357.1333312988281],[88.66667175292969,357.1333312988281],[87.66667175292969,357.1333312988281],[87.66667175292969,355.1333312988281],[87.66667175292969,353.1333312988281],[87.66667175292969,350.1333312988281],[87.66667175292969,348.1333312988281],[88.66667175292969,344.1333312988281],[89.66667175292969,341.1333312988281],[95.66667175292969,329.1333312988281],[96.66667175292969,326.1333312988281],[97.66667175292969,324.1333312988281],[97.66667175292969,323.1333312988281],[97.66667175292969,322.1333312988281],[97.66667175292969,321.1333312988281],[98.66667175292969,321.1333312988281],[98.66667175292969,322.1333312988281],[98.66667175292969,324.1333312988281],[98.66667175292969,325.1333312988281],[98.66667175292969,327.1333312988281],[98.66667175292969,329.1333312988281],[98.66667175292969,333.1333312988281],[98.66667175292969,335.1333312988281]]},{\"color\":\"#3fc0c0\",\"size\":15,\"width\":480,\"height\":480,\"stroke\":[[144.6666717529297,276.1333312988281],[145.6666717529297,276.1333312988281],[145.6666717529297,275.1333312988281],[147.6666717529297,273.1333312988281],[148.6666717529297,273.1333312988281],[149.6666717529297,272.1333312988281],[150.6666717529297,271.1333312988281],[151.6666717529297,270.1333312988281],[153.6666717529297,270.1333312988281],[153.6666717529297,269.1333312988281],[155.6666717529297,268.1333312988281],[155.6666717529297,268.1333312988281],[156.6666717529297,267.1333312988281]]},{\"color\":\"#3fc0c0\",\"size\":15,\"width\":480,\"height\":480,\"stroke\":[[114.66667175292969,307.1333312988281],[113.66667175292969,307.1333312988281],[113.66667175292969,306.1333312988281],[112.66667175292969,305.1333312988281],[111.66667175292969,305.1333312988281],[109.66667175292969,303.1333312988281],[109.66667175292969,302.1333312988281],[107.66667175292969,301.1333312988281],[106.66667175292969,299.1333312988281],[105.66667175292969,298.1333312988281],[103.66667175292969,296.1333312988281],[101.66667175292969,295.1333312988281],[101.66667175292969,294.1333312988281],[100.66667175292969,293.1333312988281],[99.66667175292969,293.1333312988281],[98.66667175292969,291.1333312988281],[95.66667175292969,290.1333312988281],[95.66667175292969,288.1333312988281],[93.66667175292969,287.1333312988281],[91.66667175292969,285.1333312988281],[88.66667175292969,282.1333312988281],[87.66667175292969,281.1333312988281],[85.66667175292969,279.1333312988281],[83.66667175292969,278.1333312988281],[81.66667175292969,276.1333312988281],[81.66667175292969,276.1333312988281],[81.66667175292969,277.1333312988281],[83.66667175292969,281.1333312988281],[87.66667175292969,287.1333312988281],[92.66667175292969,293.1333312988281],[95.66667175292969,298.1333312988281],[98.66667175292969,304.1333312988281],[99.66667175292969,307.1333312988281],[101.66667175292969,311.1333312988281],[103.66667175292969,313.1333312988281],[103.66667175292969,315.1333312988281],[104.66667175292969,316.1333312988281],[105.66667175292969,317.1333312988281],[105.66667175292969,317.1333312988281],[106.66667175292969,318.1333312988281],[106.66667175292969,319.1333312988281],[107.66667175292969,319.1333312988281],[107.66667175292969,319.1333312988281],[108.66667175292969,319.1333312988281],[109.66667175292969,319.1333312988281],[109.66667175292969,319.1333312988281],[109.66667175292969,318.1333312988281]]},{\"color\":\"#8d7272\",\"size\":15,\"width\":480,\"height\":480,\"stroke\":[[399.6666717529297,242.13333129882812],[399.6666717529297,242.13333129882812],[396.6666717529297,242.13333129882812],[393.6666717529297,242.13333129882812],[382.6666717529297,239.13333129882812],[377.6666717529297,239.13333129882812],[369.6666717529297,239.13333129882812],[365.6666717529297,239.13333129882812],[363.6666717529297,239.13333129882812],[357.6666717529297,239.13333129882812],[355.6666717529297,239.13333129882812],[353.6666717529297,239.13333129882812],[352.6666717529297,239.13333129882812],[350.6666717529297,239.13333129882812],[348.6666717529297,239.13333129882812],[347.6666717529297,239.13333129882812],[345.6666717529297,239.13333129882812],[343.6666717529297,239.13333129882812],[342.6666717529297,239.13333129882812],[339.6666717529297,239.13333129882812],[338.6666717529297,240.13333129882812],[337.6666717529297,240.13333129882812],[337.6666717529297,240.13333129882812],[335.6666717529297,241.13333129882812],[333.6666717529297,241.13333129882812],[333.6666717529297,241.13333129882812],[333.6666717529297,241.13333129882812],[332.6666717529297,242.13333129882812],[331.6666717529297,243.13333129882812],[331.6666717529297,243.13333129882812],[331.6666717529297,243.13333129882812],[330.6666717529297,243.13333129882812],[330.6666717529297,244.13333129882812],[329.6666717529297,245.13333129882812],[329.6666717529297,245.13333129882812],[326.6666717529297,247.13333129882812],[326.6666717529297,247.13333129882812],[325.6666717529297,249.13333129882812],[325.6666717529297,249.13333129882812],[325.6666717529297,249.13333129882812],[325.6666717529297,250.13333129882812],[324.6666717529297,251.13333129882812],[323.6666717529297,251.13333129882812],[323.6666717529297,251.13333129882812],[323.6666717529297,252.13333129882812],[323.6666717529297,253.13333129882812],[323.6666717529297,253.13333129882812],[323.6666717529297,254.13333129882812],[323.6666717529297,255.13333129882812],[323.6666717529297,255.13333129882812],[323.6666717529297,256.1333312988281],[323.6666717529297,258.1333312988281],[324.6666717529297,260.1333312988281],[327.6666717529297,262.1333312988281],[329.6666717529297,264.1333312988281],[332.6666717529297,266.1333312988281],[336.6666717529297,269.1333312988281],[343.6666717529297,271.1333312988281],[347.6666717529297,271.1333312988281],[351.6666717529297,271.1333312988281],[355.6666717529297,272.1333312988281],[360.6666717529297,272.1333312988281],[363.6666717529297,272.1333312988281],[365.6666717529297,272.1333312988281],[368.6666717529297,272.1333312988281],[373.6666717529297,272.1333312988281],[377.6666717529297,272.1333312988281],[380.6666717529297,272.1333312988281],[384.6666717529297,272.1333312988281],[391.6666717529297,272.1333312988281],[395.6666717529297,272.1333312988281],[398.6666717529297,272.1333312988281],[401.6666717529297,272.1333312988281],[403.6666717529297,272.1333312988281],[405.6666717529297,272.1333312988281],[405.6666717529297,272.1333312988281],[406.6666717529297,272.1333312988281],[406.6666717529297,271.1333312988281],[406.6666717529297,270.1333312988281],[406.6666717529297,269.1333312988281],[406.6666717529297,268.1333312988281],[404.6666717529297,265.1333312988281],[401.6666717529297,261.1333312988281],[393.6666717529297,255.13333129882812],[391.6666717529297,252.13333129882812],[387.6666717529297,249.13333129882812],[385.6666717529297,248.13333129882812],[382.6666717529297,246.13333129882812],[379.6666717529297,245.13333129882812],[377.6666717529297,244.13333129882812],[375.6666717529297,243.13333129882812],[373.6666717529297,243.13333129882812],[369.6666717529297,243.13333129882812],[367.6666717529297,242.13333129882812],[363.6666717529297,242.13333129882812],[359.6666717529297,242.13333129882812],[357.6666717529297,242.13333129882812],[354.6666717529297,242.13333129882812],[351.6666717529297,242.13333129882812],[347.6666717529297,243.13333129882812],[343.6666717529297,245.13333129882812],[339.6666717529297,247.13333129882812],[333.6666717529297,250.13333129882812],[328.6666717529297,255.13333129882812],[324.6666717529297,257.1333312988281],[321.6666717529297,261.1333312988281],[319.6666717529297,261.1333312988281],[318.6666717529297,263.1333312988281],[317.6666717529297,264.1333312988281],[315.6666717529297,265.1333312988281],[315.6666717529297,266.1333312988281],[315.6666717529297,267.1333312988281],[315.6666717529297,269.1333312988281],[316.6666717529297,269.1333312988281],[317.6666717529297,269.1333312988281],[321.6666717529297,269.1333312988281],[325.6666717529297,269.1333312988281],[333.6666717529297,269.1333312988281],[341.6666717529297,269.1333312988281],[351.6666717529297,269.1333312988281],[364.6666717529297,270.1333312988281],[369.6666717529297,271.1333312988281],[375.6666717529297,272.1333312988281],[383.6666717529297,273.1333312988281],[392.6666717529297,275.1333312988281],[397.6666717529297,275.1333312988281],[400.6666717529297,275.1333312988281],[403.6666717529297,275.1333312988281],[404.6666717529297,275.1333312988281],[405.6666717529297,275.1333312988281],[405.6666717529297,275.1333312988281],[405.6666717529297,276.1333312988281],[399.6666717529297,276.1333312988281],[387.6666717529297,277.1333312988281],[380.6666717529297,277.1333312988281],[366.6666717529297,278.1333312988281],[359.6666717529297,278.1333312988281],[353.6666717529297,278.1333312988281],[342.6666717529297,278.1333312988281],[335.6666717529297,277.1333312988281],[334.6666717529297,277.1333312988281],[333.6666717529297,277.1333312988281],[332.6666717529297,277.1333312988281],[331.6666717529297,277.1333312988281],[331.6666717529297,277.1333312988281],[330.6666717529297,277.1333312988281],[329.6666717529297,277.1333312988281],[328.6666717529297,277.1333312988281],[327.6666717529297,277.1333312988281],[326.6666717529297,277.1333312988281],[325.6666717529297,277.1333312988281],[328.6666717529297,277.1333312988281],[335.6666717529297,276.1333312988281],[349.6666717529297,273.1333312988281],[372.6666717529297,263.1333312988281],[383.6666717529297,256.1333312988281],[384.6666717529297,255.13333129882812],[385.6666717529297,254.13333129882812],[385.6666717529297,252.13333129882812],[385.6666717529297,251.13333129882812],[385.6666717529297,250.13333129882812],[385.6666717529297,248.13333129882812],[383.6666717529297,245.13333129882812],[375.6666717529297,242.13333129882812],[372.6666717529297,242.13333129882812],[361.6666717529297,241.13333129882812],[351.6666717529297,241.13333129882812],[347.6666717529297,242.13333129882812],[344.6666717529297,243.13333129882812],[340.6666717529297,243.13333129882812],[337.6666717529297,245.13333129882812],[336.6666717529297,245.13333129882812],[334.6666717529297,247.13333129882812],[333.6666717529297,249.13333129882812],[333.6666717529297,250.13333129882812],[335.6666717529297,250.13333129882812],[336.6666717529297,250.13333129882812],[354.6666717529297,252.13333129882812],[359.6666717529297,253.13333129882812],[373.6666717529297,256.1333312988281],[376.6666717529297,257.1333312988281],[378.6666717529297,259.1333312988281],[379.6666717529297,259.1333312988281],[381.6666717529297,259.1333312988281],[382.6666717529297,259.1333312988281],[383.6666717529297,260.1333312988281],[384.6666717529297,261.1333312988281],[385.6666717529297,261.1333312988281],[385.6666717529297,261.1333312988281],[381.6666717529297,261.1333312988281],[371.6666717529297,259.1333312988281],[363.6666717529297,259.1333312988281],[358.6666717529297,258.1333312988281],[354.6666717529297,257.1333312988281],[349.6666717529297,257.1333312988281],[347.6666717529297,257.1333312988281],[344.6666717529297,257.1333312988281],[341.6666717529297,257.1333312988281],[339.6666717529297,257.1333312988281],[339.6666717529297,257.1333312988281],[340.6666717529297,257.1333312988281],[341.6666717529297,257.1333312988281],[347.6666717529297,257.1333312988281],[355.6666717529297,257.1333312988281],[363.6666717529297,259.1333312988281],[365.6666717529297,259.1333312988281],[366.6666717529297,259.1333312988281],[364.6666717529297,259.1333312988281],[362.6666717529297,259.1333312988281],[353.6666717529297,259.1333312988281],[346.6666717529297,259.1333312988281],[338.6666717529297,259.1333312988281],[337.6666717529297,259.1333312988281],[335.6666717529297,259.1333312988281]]},{\"color\":\"#c53a3a\",\"size\":15,\"width\":480,\"height\":480,\"stroke\":[[401.6666717529297,275.1333312988281],[400.6666717529297,275.1333312988281],[399.6666717529297,275.1333312988281],[397.6666717529297,275.1333312988281],[395.6666717529297,275.1333312988281],[390.6666717529297,275.1333312988281],[389.6666717529297,275.1333312988281],[383.6666717529297,275.1333312988281],[381.6666717529297,275.1333312988281],[377.6666717529297,275.1333312988281],[374.6666717529297,276.1333312988281],[360.6666717529297,276.1333312988281],[359.6666717529297,276.1333312988281],[357.6666717529297,276.1333312988281],[356.6666717529297,276.1333312988281],[355.6666717529297,276.1333312988281],[354.6666717529297,276.1333312988281],[352.6666717529297,276.1333312988281],[351.6666717529297,276.1333312988281],[351.6666717529297,276.1333312988281],[350.6666717529297,276.1333312988281],[348.6666717529297,276.1333312988281],[347.6666717529297,276.1333312988281],[347.6666717529297,276.1333312988281],[346.6666717529297,276.1333312988281],[345.6666717529297,276.1333312988281],[344.6666717529297,276.1333312988281],[343.6666717529297,276.1333312988281],[342.6666717529297,276.1333312988281],[341.6666717529297,276.1333312988281],[341.6666717529297,276.1333312988281],[339.6666717529297,276.1333312988281],[339.6666717529297,276.1333312988281],[338.6666717529297,276.1333312988281],[336.6666717529297,276.1333312988281],[335.6666717529297,276.1333312988281],[335.6666717529297,276.1333312988281],[333.6666717529297,276.1333312988281],[331.6666717529297,276.1333312988281],[330.6666717529297,276.1333312988281],[329.6666717529297,276.1333312988281],[328.6666717529297,276.1333312988281],[327.6666717529297,276.1333312988281],[326.6666717529297,276.1333312988281],[325.6666717529297,275.1333312988281],[325.6666717529297,275.1333312988281],[324.6666717529297,275.1333312988281],[323.6666717529297,275.1333312988281],[323.6666717529297,275.1333312988281],[322.6666717529297,274.1333312988281],[321.6666717529297,274.1333312988281],[321.6666717529297,274.1333312988281],[320.6666717529297,273.1333312988281],[320.6666717529297,273.1333312988281],[320.6666717529297,271.1333312988281],[320.6666717529297,271.1333312988281],[320.6666717529297,270.1333312988281],[320.6666717529297,269.1333312988281],[320.6666717529297,268.1333312988281],[320.6666717529297,267.1333312988281],[320.6666717529297,266.1333312988281],[320.6666717529297,265.1333312988281],[320.6666717529297,264.1333312988281],[320.6666717529297,263.1333312988281],[320.6666717529297,262.1333312988281],[320.6666717529297,261.1333312988281],[320.6666717529297,259.1333312988281],[320.6666717529297,259.1333312988281],[320.6666717529297,257.1333312988281],[320.6666717529297,256.1333312988281],[320.6666717529297,255.13333129882812],[320.6666717529297,253.13333129882812],[321.6666717529297,252.13333129882812],[321.6666717529297,251.13333129882812],[321.6666717529297,249.13333129882812],[321.6666717529297,248.13333129882812],[322.6666717529297,247.13333129882812],[322.6666717529297,247.13333129882812],[322.6666717529297,245.13333129882812],[323.6666717529297,244.13333129882812],[323.6666717529297,243.13333129882812],[323.6666717529297,243.13333129882812],[324.6666717529297,243.13333129882812],[324.6666717529297,242.13333129882812],[326.6666717529297,241.13333129882812],[327.6666717529297,241.13333129882812],[329.6666717529297,241.13333129882812],[330.6666717529297,241.13333129882812],[331.6666717529297,241.13333129882812],[332.6666717529297,241.13333129882812],[333.6666717529297,241.13333129882812],[335.6666717529297,241.13333129882812],[337.6666717529297,241.13333129882812],[338.6666717529297,241.13333129882812],[339.6666717529297,241.13333129882812],[342.6666717529297,241.13333129882812],[345.6666717529297,241.13333129882812],[347.6666717529297,241.13333129882812],[349.6666717529297,241.13333129882812],[352.6666717529297,241.13333129882812],[354.6666717529297,239.13333129882812],[356.6666717529297,239.13333129882812],[358.6666717529297,239.13333129882812],[360.6666717529297,239.13333129882812],[362.6666717529297,239.13333129882812],[364.6666717529297,239.13333129882812],[365.6666717529297,239.13333129882812],[367.6666717529297,239.13333129882812],[369.6666717529297,238.13333129882812],[370.6666717529297,238.13333129882812],[371.6666717529297,238.13333129882812],[373.6666717529297,238.13333129882812],[375.6666717529297,238.13333129882812],[377.6666717529297,238.13333129882812],[377.6666717529297,238.13333129882812],[379.6666717529297,238.13333129882812],[379.6666717529297,238.13333129882812],[381.6666717529297,238.13333129882812],[381.6666717529297,238.13333129882812],[383.6666717529297,238.13333129882812],[383.6666717529297,238.13333129882812],[384.6666717529297,238.13333129882812],[385.6666717529297,238.13333129882812],[385.6666717529297,238.13333129882812],[386.6666717529297,238.13333129882812],[387.6666717529297,238.13333129882812],[389.6666717529297,239.13333129882812],[391.6666717529297,240.13333129882812],[391.6666717529297,241.13333129882812],[392.6666717529297,242.13333129882812],[393.6666717529297,242.13333129882812],[394.6666717529297,243.13333129882812],[395.6666717529297,244.13333129882812],[396.6666717529297,245.13333129882812],[397.6666717529297,245.13333129882812],[399.6666717529297,247.13333129882812],[399.6666717529297,247.13333129882812],[401.6666717529297,249.13333129882812],[405.6666717529297,251.13333129882812],[406.6666717529297,253.13333129882812],[407.6666717529297,255.13333129882812],[408.6666717529297,256.1333312988281],[409.6666717529297,257.1333312988281],[409.6666717529297,257.1333312988281],[410.6666717529297,258.1333312988281],[411.6666717529297,259.1333312988281],[411.6666717529297,261.1333312988281],[411.6666717529297,262.1333312988281],[409.6666717529297,263.1333312988281],[407.6666717529297,263.1333312988281],[405.6666717529297,263.1333312988281],[404.6666717529297,263.1333312988281],[401.6666717529297,263.1333312988281],[399.6666717529297,263.1333312988281],[397.6666717529297,263.1333312988281],[389.6666717529297,263.1333312988281],[384.6666717529297,263.1333312988281],[380.6666717529297,263.1333312988281],[367.6666717529297,263.1333312988281],[362.6666717529297,263.1333312988281],[348.6666717529297,265.1333312988281],[343.6666717529297,265.1333312988281],[340.6666717529297,265.1333312988281],[334.6666717529297,265.1333312988281],[332.6666717529297,265.1333312988281],[329.6666717529297,265.1333312988281],[329.6666717529297,265.1333312988281],[329.6666717529297,264.1333312988281],[329.6666717529297,263.1333312988281],[330.6666717529297,263.1333312988281],[335.6666717529297,263.1333312988281],[344.6666717529297,261.1333312988281],[361.6666717529297,257.1333312988281],[370.6666717529297,255.13333129882812],[378.6666717529297,251.13333129882812],[383.6666717529297,249.13333129882812],[388.6666717529297,248.13333129882812],[395.6666717529297,245.13333129882812],[398.6666717529297,243.13333129882812],[400.6666717529297,242.13333129882812],[401.6666717529297,242.13333129882812],[401.6666717529297,242.13333129882812],[402.6666717529297,242.13333129882812],[403.6666717529297,242.13333129882812],[403.6666717529297,242.13333129882812],[401.6666717529297,242.13333129882812],[398.6666717529297,242.13333129882812],[391.6666717529297,243.13333129882812],[385.6666717529297,244.13333129882812],[375.6666717529297,245.13333129882812],[365.6666717529297,247.13333129882812],[345.6666717529297,251.13333129882812],[329.6666717529297,253.13333129882812],[317.6666717529297,255.13333129882812],[306.6666717529297,256.1333312988281],[301.6666717529297,257.1333312988281],[298.6666717529297,257.1333312988281],[297.6666717529297,257.1333312988281],[296.6666717529297,257.1333312988281],[295.6666717529297,257.1333312988281],[296.6666717529297,257.1333312988281],[301.6666717529297,257.1333312988281],[313.6666717529297,257.1333312988281],[343.6666717529297,257.1333312988281],[351.6666717529297,257.1333312988281],[362.6666717529297,257.1333312988281],[370.6666717529297,255.13333129882812],[376.6666717529297,253.13333129882812],[381.6666717529297,252.13333129882812],[383.6666717529297,251.13333129882812],[390.6666717529297,250.13333129882812],[395.6666717529297,249.13333129882812],[398.6666717529297,248.13333129882812],[400.6666717529297,248.13333129882812],[401.6666717529297,248.13333129882812],[401.6666717529297,248.13333129882812],[401.6666717529297,249.13333129882812],[400.6666717529297,249.13333129882812],[398.6666717529297,250.13333129882812],[396.6666717529297,251.13333129882812],[394.6666717529297,251.13333129882812],[392.6666717529297,252.13333129882812],[389.6666717529297,252.13333129882812],[386.6666717529297,252.13333129882812],[383.6666717529297,252.13333129882812],[380.6666717529297,252.13333129882812],[379.6666717529297,252.13333129882812],[376.6666717529297,252.13333129882812],[375.6666717529297,251.13333129882812],[374.6666717529297,251.13333129882812],[373.6666717529297,250.13333129882812],[372.6666717529297,249.13333129882812],[371.6666717529297,249.13333129882812],[371.6666717529297,248.13333129882812]]},{\"color\":\"#c53a3a\",\"size\":15,\"width\":480,\"height\":480,\"stroke\":[[292.6666717529297,265.1333312988281],[292.6666717529297,264.1333312988281],[292.6666717529297,263.1333312988281],[292.6666717529297,263.1333312988281],[292.6666717529297,261.1333312988281],[292.6666717529297,261.1333312988281],[292.6666717529297,260.1333312988281]]},{\"color\":\"#04fbfb\",\"size\":15,\"width\":480,\"height\":480,\"stroke\":[[292.6666717529297,271.1333312988281],[292.6666717529297,271.1333312988281],[292.6666717529297,270.1333312988281],[292.6666717529297,269.1333312988281],[292.6666717529297,269.1333312988281],[292.6666717529297,267.1333312988281],[291.6666717529297,265.1333312988281],[291.6666717529297,264.1333312988281],[291.6666717529297,263.1333312988281],[291.6666717529297,263.1333312988281],[291.6666717529297,262.1333312988281],[291.6666717529297,261.1333312988281],[291.6666717529297,261.1333312988281],[291.6666717529297,260.1333312988281],[291.6666717529297,259.1333312988281],[291.6666717529297,258.1333312988281],[291.6666717529297,257.1333312988281],[291.6666717529297,257.1333312988281],[291.6666717529297,256.1333312988281],[291.6666717529297,255.13333129882812],[291.6666717529297,254.13333129882812],[291.6666717529297,253.13333129882812],[291.6666717529297,253.13333129882812],[292.6666717529297,253.13333129882812],[295.6666717529297,253.13333129882812],[295.6666717529297,253.13333129882812],[296.6666717529297,253.13333129882812],[297.6666717529297,253.13333129882812],[297.6666717529297,254.13333129882812],[297.6666717529297,255.13333129882812],[298.6666717529297,255.13333129882812],[298.6666717529297,255.13333129882812],[298.6666717529297,256.1333312988281],[298.6666717529297,257.1333312988281]]},{\"color\":\"#887777\",\"size\":15,\"width\":480,\"height\":480,\"stroke\":[[145.6666717529297,389.1333312988281],[145.6666717529297,389.1333312988281],[145.6666717529297,387.1333312988281],[145.6666717529297,386.1333312988281],[145.6666717529297,385.1333312988281],[145.6666717529297,381.1333312988281],[145.6666717529297,380.1333312988281],[145.6666717529297,379.1333312988281],[145.6666717529297,379.1333312988281],[145.6666717529297,378.1333312988281],[145.6666717529297,377.1333312988281],[146.6666717529297,377.1333312988281],[147.6666717529297,377.1333312988281],[147.6666717529297,375.1333312988281],[148.6666717529297,375.1333312988281],[148.6666717529297,373.1333312988281],[149.6666717529297,372.1333312988281],[149.6666717529297,371.1333312988281],[149.6666717529297,370.1333312988281],[150.6666717529297,370.1333312988281],[151.6666717529297,371.1333312988281],[151.6666717529297,373.1333312988281],[151.6666717529297,375.1333312988281],[151.6666717529297,376.1333312988281],[151.6666717529297,377.1333312988281]]},{\"color\":\"#887777\",\"size\":15,\"width\":480,\"height\":480,\"stroke\":[[150.6666717529297,374.1333312988281],[150.6666717529297,375.1333312988281],[150.6666717529297,377.1333312988281],[151.6666717529297,387.1333312988281],[151.6666717529297,398.1333312988281],[151.6666717529297,425.1333312988281],[149.6666717529297,457.1333312988281],[149.6666717529297,463.1333312988281],[149.6666717529297,468.1333312988281],[149.6666717529297,472.1333312988281],[149.6666717529297,473.1333312988281],[149.6666717529297,474.1333312988281],[149.6666717529297,475.1333312988281],[147.6666717529297,472.1333312988281],[147.6666717529297,469.1333312988281],[143.6666717529297,461.1333312988281],[141.6666717529297,455.1333312988281],[139.6666717529297,449.1333312988281],[139.6666717529297,447.1333312988281],[138.6666717529297,445.1333312988281],[137.6666717529297,442.1333312988281],[137.6666717529297,441.1333312988281],[137.6666717529297,439.1333312988281],[137.6666717529297,437.1333312988281],[137.6666717529297,436.1333312988281],[137.6666717529297,435.1333312988281],[137.6666717529297,435.1333312988281],[137.6666717529297,434.1333312988281],[137.6666717529297,433.1333312988281],[136.6666717529297,433.1333312988281],[135.6666717529297,434.1333312988281],[135.6666717529297,437.1333312988281],[134.6666717529297,445.1333312988281],[134.6666717529297,450.1333312988281],[132.6666717529297,456.1333312988281],[131.6666717529297,461.1333312988281],[131.6666717529297,464.1333312988281],[131.6666717529297,469.1333312988281],[131.6666717529297,471.1333312988281],[131.6666717529297,472.1333312988281],[131.6666717529297,471.1333312988281],[135.6666717529297,471.1333312988281],[139.6666717529297,471.1333312988281],[147.6666717529297,471.1333312988281],[151.6666717529297,471.1333312988281],[155.6666717529297,471.1333312988281],[155.6666717529297,471.1333312988281],[157.6666717529297,471.1333312988281],[159.6666717529297,470.1333312988281],[160.6666717529297,470.1333312988281],[161.6666717529297,470.1333312988281],[163.6666717529297,469.1333312988281],[163.6666717529297,469.1333312988281],[163.6666717529297,469.1333312988281],[163.6666717529297,467.1333312988281],[162.6666717529297,463.1333312988281],[160.6666717529297,461.1333312988281],[158.6666717529297,455.1333312988281],[154.6666717529297,443.1333312988281],[153.6666717529297,439.1333312988281],[149.6666717529297,430.1333312988281],[147.6666717529297,421.1333312988281],[145.6666717529297,415.1333312988281],[143.6666717529297,409.1333312988281],[141.6666717529297,403.1333312988281],[141.6666717529297,400.1333312988281],[140.6666717529297,396.1333312988281],[139.6666717529297,393.1333312988281],[138.6666717529297,391.1333312988281],[137.6666717529297,390.1333312988281],[137.6666717529297,389.1333312988281],[136.6666717529297,387.1333312988281],[135.6666717529297,387.1333312988281],[135.6666717529297,386.1333312988281],[134.6666717529297,385.1333312988281],[133.6666717529297,383.1333312988281],[133.6666717529297,385.1333312988281],[133.6666717529297,387.1333312988281],[135.6666717529297,394.1333312988281],[135.6666717529297,404.1333312988281],[135.6666717529297,421.1333312988281],[135.6666717529297,424.1333312988281],[135.6666717529297,429.1333312988281],[135.6666717529297,431.1333312988281],[135.6666717529297,432.1333312988281],[136.6666717529297,417.1333312988281],[136.6666717529297,412.1333312988281],[136.6666717529297,400.1333312988281],[136.6666717529297,397.1333312988281],[136.6666717529297,367.1333312988281],[136.6666717529297,368.1333312988281],[136.6666717529297,369.1333312988281],[136.6666717529297,373.1333312988281]]},{\"color\":\"#887777\",\"size\":15,\"width\":480,\"height\":480,\"stroke\":[[97.66667175292969,439.1333312988281],[97.66667175292969,440.1333312988281],[97.66667175292969,442.1333312988281],[94.66667175292969,449.1333312988281],[91.66667175292969,457.1333312988281],[90.66667175292969,461.1333312988281],[88.66667175292969,463.1333312988281],[88.66667175292969,465.1333312988281],[87.66667175292969,465.1333312988281],[87.66667175292969,466.1333312988281],[86.66667175292969,467.1333312988281],[85.66667175292969,467.1333312988281],[85.66667175292969,467.1333312988281],[84.66667175292969,467.1333312988281],[82.66667175292969,467.1333312988281],[81.66667175292969,467.1333312988281],[78.66667175292969,467.1333312988281],[77.66667175292969,467.1333312988281],[75.66667175292969,467.1333312988281],[73.66667175292969,466.1333312988281],[72.66667175292969,465.1333312988281],[71.66667175292969,465.1333312988281],[71.66667175292969,464.1333312988281],[73.66667175292969,464.1333312988281],[77.66667175292969,464.1333312988281],[81.66667175292969,464.1333312988281],[83.66667175292969,464.1333312988281],[89.66667175292969,465.1333312988281],[90.66667175292969,465.1333312988281],[91.66667175292969,465.1333312988281],[92.66667175292969,465.1333312988281],[93.66667175292969,465.1333312988281],[94.66667175292969,465.1333312988281],[95.66667175292969,465.1333312988281],[95.66667175292969,463.1333312988281],[95.66667175292969,462.1333312988281],[96.66667175292969,459.1333312988281],[96.66667175292969,458.1333312988281],[96.66667175292969,455.1333312988281],[96.66667175292969,453.1333312988281],[96.66667175292969,452.1333312988281],[96.66667175292969,450.1333312988281],[97.66667175292969,446.1333312988281],[97.66667175292969,443.1333312988281],[97.66667175292969,440.1333312988281],[97.66667175292969,437.1333312988281],[97.66667175292969,433.1333312988281],[97.66667175292969,433.1333312988281],[97.66667175292969,431.1333312988281],[97.66667175292969,428.1333312988281],[97.66667175292969,425.1333312988281],[97.66667175292969,420.1333312988281],[97.66667175292969,416.1333312988281],[97.66667175292969,411.1333312988281],[97.66667175292969,405.1333312988281],[97.66667175292969,401.1333312988281],[97.66667175292969,398.1333312988281],[97.66667175292969,397.1333312988281],[97.66667175292969,395.1333312988281],[97.66667175292969,394.1333312988281],[97.66667175292969,393.1333312988281],[97.66667175292969,391.1333312988281],[97.66667175292969,390.1333312988281],[97.66667175292969,389.1333312988281],[97.66667175292969,389.1333312988281],[97.66667175292969,388.1333312988281],[96.66667175292969,387.1333312988281],[95.66667175292969,387.1333312988281],[95.66667175292969,386.1333312988281],[94.66667175292969,385.1333312988281],[93.66667175292969,385.1333312988281],[93.66667175292969,383.1333312988281],[92.66667175292969,382.1333312988281],[91.66667175292969,382.1333312988281],[91.66667175292969,381.1333312988281],[90.66667175292969,380.1333312988281],[89.66667175292969,380.1333312988281],[89.66667175292969,379.1333312988281],[89.66667175292969,379.1333312988281],[89.66667175292969,378.1333312988281],[88.66667175292969,377.1333312988281],[88.66667175292969,377.1333312988281],[88.66667175292969,376.1333312988281],[88.66667175292969,375.1333312988281],[88.66667175292969,375.1333312988281],[89.66667175292969,375.1333312988281],[90.66667175292969,375.1333312988281],[91.66667175292969,375.1333312988281],[95.66667175292969,375.1333312988281],[96.66667175292969,376.1333312988281],[97.66667175292969,377.1333312988281],[100.66667175292969,378.1333312988281],[102.66667175292969,379.1333312988281],[103.66667175292969,380.1333312988281],[104.66667175292969,381.1333312988281],[104.66667175292969,382.1333312988281],[105.66667175292969,383.1333312988281],[105.66667175292969,385.1333312988281],[106.66667175292969,388.1333312988281],[106.66667175292969,393.1333312988281],[107.66667175292969,397.1333312988281],[107.66667175292969,405.1333312988281],[107.66667175292969,416.1333312988281],[107.66667175292969,422.1333312988281],[107.66667175292969,429.1333312988281],[106.66667175292969,434.1333312988281],[105.66667175292969,443.1333312988281],[104.66667175292969,447.1333312988281],[101.66667175292969,453.1333312988281],[101.66667175292969,456.1333312988281],[99.66667175292969,459.1333312988281],[98.66667175292969,461.1333312988281],[97.66667175292969,463.1333312988281],[96.66667175292969,463.1333312988281],[95.66667175292969,465.1333312988281],[93.66667175292969,465.1333312988281],[93.66667175292969,466.1333312988281],[92.66667175292969,466.1333312988281],[90.66667175292969,467.1333312988281],[89.66667175292969,467.1333312988281],[89.66667175292969,468.1333312988281],[88.66667175292969,468.1333312988281],[87.66667175292969,469.1333312988281],[87.66667175292969,469.1333312988281],[86.66667175292969,469.1333312988281],[86.66667175292969,468.1333312988281],[86.66667175292969,467.1333312988281]]},{\"color\":\"#fb0404\",\"size\":15,\"width\":480,\"height\":480,\"stroke\":[[87.66667175292969,251.13333129882812],[88.66667175292969,253.13333129882812],[89.66667175292969,253.13333129882812],[93.66667175292969,257.1333312988281],[96.66667175292969,260.1333312988281],[103.66667175292969,271.1333312988281],[103.66667175292969,272.1333312988281],[104.66667175292969,273.1333312988281],[105.66667175292969,273.1333312988281],[105.66667175292969,274.1333312988281],[105.66667175292969,275.1333312988281],[105.66667175292969,275.1333312988281],[106.66667175292969,276.1333312988281],[107.66667175292969,276.1333312988281],[107.66667175292969,277.1333312988281],[107.66667175292969,278.1333312988281],[109.66667175292969,279.1333312988281],[109.66667175292969,280.1333312988281],[110.66667175292969,281.1333312988281],[110.66667175292969,282.1333312988281],[110.66667175292969,283.1333312988281],[111.66667175292969,283.1333312988281],[111.66667175292969,284.1333312988281],[112.66667175292969,285.1333312988281],[113.66667175292969,285.1333312988281],[113.66667175292969,285.1333312988281],[114.66667175292969,285.1333312988281],[115.66667175292969,285.1333312988281],[115.66667175292969,285.1333312988281],[117.66667175292969,285.1333312988281],[118.66667175292969,285.1333312988281],[119.66667175292969,285.1333312988281],[120.66667175292969,285.1333312988281],[121.66667175292969,285.1333312988281],[121.66667175292969,283.1333312988281],[122.66667175292969,283.1333312988281],[122.66667175292969,282.1333312988281],[123.66667175292969,281.1333312988281],[123.66667175292969,280.1333312988281],[125.66667175292969,278.1333312988281],[126.66667175292969,277.1333312988281],[126.66667175292969,276.1333312988281],[127.66667175292969,274.1333312988281],[128.6666717529297,274.1333312988281],[129.6666717529297,273.1333312988281],[129.6666717529297,272.1333312988281],[130.6666717529297,270.1333312988281],[132.6666717529297,269.1333312988281],[134.6666717529297,267.1333312988281],[136.6666717529297,265.1333312988281],[137.6666717529297,265.1333312988281],[139.6666717529297,263.1333312988281],[141.6666717529297,262.1333312988281],[142.6666717529297,262.1333312988281],[145.6666717529297,261.1333312988281],[145.6666717529297,261.1333312988281],[147.6666717529297,261.1333312988281],[148.6666717529297,261.1333312988281],[149.6666717529297,261.1333312988281],[151.6666717529297,261.1333312988281],[153.6666717529297,261.1333312988281],[154.6666717529297,261.1333312988281],[155.6666717529297,261.1333312988281],[155.6666717529297,261.1333312988281],[155.6666717529297,260.1333312988281],[155.6666717529297,259.1333312988281],[149.6666717529297,258.1333312988281],[142.6666717529297,257.1333312988281],[133.6666717529297,255.13333129882812],[129.6666717529297,254.13333129882812],[126.66667175292969,254.13333129882812],[123.66667175292969,254.13333129882812],[121.66667175292969,254.13333129882812],[119.66667175292969,254.13333129882812],[117.66667175292969,254.13333129882812],[116.66667175292969,254.13333129882812],[114.66667175292969,254.13333129882812],[112.66667175292969,254.13333129882812],[111.66667175292969,254.13333129882812],[109.66667175292969,254.13333129882812],[107.66667175292969,254.13333129882812],[107.66667175292969,254.13333129882812],[106.66667175292969,254.13333129882812],[105.66667175292969,254.13333129882812],[104.66667175292969,254.13333129882812],[103.66667175292969,254.13333129882812],[103.66667175292969,254.13333129882812],[102.66667175292969,254.13333129882812],[102.66667175292969,255.13333129882812],[103.66667175292969,255.13333129882812],[107.66667175292969,259.1333312988281],[108.66667175292969,259.1333312988281],[109.66667175292969,260.1333312988281],[111.66667175292969,261.1333312988281],[111.66667175292969,261.1333312988281],[112.66667175292969,261.1333312988281],[113.66667175292969,261.1333312988281],[113.66667175292969,261.1333312988281],[114.66667175292969,261.1333312988281],[115.66667175292969,261.1333312988281],[115.66667175292969,261.1333312988281],[117.66667175292969,261.1333312988281],[118.66667175292969,261.1333312988281],[120.66667175292969,262.1333312988281],[123.66667175292969,263.1333312988281],[124.66667175292969,265.1333312988281],[123.66667175292969,265.1333312988281],[121.66667175292969,265.1333312988281],[117.66667175292969,265.1333312988281],[115.66667175292969,265.1333312988281],[115.66667175292969,265.1333312988281],[114.66667175292969,265.1333312988281],[113.66667175292969,265.1333312988281],[113.66667175292969,266.1333312988281],[113.66667175292969,267.1333312988281],[113.66667175292969,268.1333312988281],[113.66667175292969,269.1333312988281],[113.66667175292969,269.1333312988281],[113.66667175292969,270.1333312988281],[113.66667175292969,270.1333312988281],[113.66667175292969,269.1333312988281],[113.66667175292969,268.1333312988281],[113.66667175292969,266.1333312988281],[113.66667175292969,265.1333312988281],[112.66667175292969,264.1333312988281],[112.66667175292969,262.1333312988281],[111.66667175292969,261.1333312988281],[111.66667175292969,261.1333312988281],[111.66667175292969,261.1333312988281],[109.66667175292969,259.1333312988281],[108.66667175292969,258.1333312988281],[107.66667175292969,257.1333312988281],[106.66667175292969,256.1333312988281],[105.66667175292969,255.13333129882812],[103.66667175292969,255.13333129882812],[103.66667175292969,254.13333129882812],[101.66667175292969,253.13333129882812],[99.66667175292969,253.13333129882812],[98.66667175292969,252.13333129882812],[97.66667175292969,251.13333129882812],[96.66667175292969,251.13333129882812],[95.66667175292969,250.13333129882812],[93.66667175292969,249.13333129882812],[91.66667175292969,249.13333129882812],[91.66667175292969,249.13333129882812],[90.66667175292969,249.13333129882812],[89.66667175292969,249.13333129882812],[89.66667175292969,249.13333129882812],[91.66667175292969,249.13333129882812],[95.66667175292969,249.13333129882812],[113.66667175292969,250.13333129882812],[120.66667175292969,251.13333129882812],[127.66667175292969,253.13333129882812],[133.6666717529297,253.13333129882812],[135.6666717529297,253.13333129882812],[139.6666717529297,254.13333129882812],[143.6666717529297,254.13333129882812],[147.6666717529297,254.13333129882812],[148.6666717529297,254.13333129882812],[150.6666717529297,254.13333129882812],[153.6666717529297,254.13333129882812],[156.6666717529297,254.13333129882812],[160.6666717529297,254.13333129882812],[161.6666717529297,254.13333129882812],[163.6666717529297,254.13333129882812],[164.6666717529297,254.13333129882812],[165.6666717529297,254.13333129882812],[165.6666717529297,254.13333129882812],[166.6666717529297,254.13333129882812]]}]","trial_type":"paint","trial_index":1,"time_elapsed":203541,"internal_node_id":"0.0-1.0","participant_id":4025705,"xgorilla":{"user_agent":"Mozilla/5.0 (Windows NT 10.0; Win64; x64; rv:88.0) Gecko/20100101 Firefox/88.0","screen_size":"1280x720","browser_size":"1280x551"},"duration":204080,"interactionData":"[]"}]